timestamp,accel_x,accel_y,accel_z,gyro_x,gyro_y,gyro_z,step_timestamp
2024-11-29 18:14:37.565,-0.200997,3.93589,8.58993,-0.222883,0.103233,0.21456,0
2024-11-29 18:14:37.565,-0.200997,3.93589,8.58993,-0.222883,0.103233,0.21456,0
2024-11-29 18:14:37.565,-0.191426,3.90957,8.58993,-0.222883,0.103233,0.21456,0
2024-11-29 18:14:37.565,-0.200997,3.93589,8.58993,-0.222883,0.103233,0.21456,0
2024-11-29 18:14:37.565,-0.200997,3.93589,8.58993,-0.222883,0.103233,0.21456,0
2024-11-29 18:14:37.565,-0.200997,3.93589,8.58993,-0.222883,0.103233,0.21456,0
2024-11-29 18:14:37.565,-0.200997,3.93589,8.58993,-0.222883,0.103233,0.21456,0
2024-11-29 18:14:37.565,-0.200997,3.93589,8.58993,-0.222883,0.103233,0.21456,0
2024-11-29 18:14:37.566,-0.20339,3.94786,8.6354,-0.222883,0.103233,0.21456,0
2024-11-29 18:14:37.566,-0.20339,3.94786,8.6354,-0.222883,0.103233,0.21456,0
2024-11-29 18:14:37.566,-0.20339,3.94786,8.6354,-0.222883,0.103233,0.21456,0
2024-11-29 18:14:37.566,-0.20339,3.94786,8.6354,-0.222883,0.103233,0.21456,0
2024-11-29 18:14:37.566,-0.20339,3.94786,8.6354,-0.222883,0.103233,0.21456,0
2024-11-29 18:14:37.566,-0.20339,3.94786,8.6354,-0.222883,0.103233,0.21456,0
2024-11-29 18:14:37.566,-0.20339,3.94786,8.6354,-0.222883,0.103233,0.21456,0
2024-11-29 18:14:37.567,-0.20339,3.94786,8.6354,-0.222272,0.104455,0.219447,0
2024-11-29 18:14:37.567,-0.20339,3.94786,8.6354,-0.222272,0.104455,0.219447,0
2024-11-29 18:14:37.567,-0.20339,3.94786,8.6354,-0.222272,0.104455,0.219447,0
2024-11-29 18:14:37.567,-0.20339,3.94786,8.6354,-0.222272,0.104455,0.219447,0
2024-11-29 18:14:37.567,-0.20339,3.94786,8.6354,-0.222272,0.104455,0.219447,0
2024-11-29 18:14:37.567,-0.20339,3.94786,8.6354,-0.222272,0.104455,0.219447,0
2024-11-29 18:14:37.569,-0.205783,3.97179,8.65933,-0.222272,0.104455,0.219447,0
2024-11-29 18:14:37.569,-0.205783,3.97179,8.65933,-0.222272,0.104455,0.219447,0
2024-11-29 18:14:37.570,-0.205783,3.97179,8.65933,-0.222883,0.103233,0.224945,0
2024-11-29 18:14:37.570,-0.205783,3.97179,8.65933,-0.222883,0.103233,0.224945,0
2024-11-29 18:14:37.570,-0.205783,3.97179,8.65933,-0.222883,0.103233,0.224945,0
2024-11-29 18:14:37.570,-0.205783,3.97179,8.65933,-0.222883,0.103233,0.224945,0
2024-11-29 18:14:37.571,-0.212961,3.97657,8.65215,-0.222883,0.103233,0.224945,0
2024-11-29 18:14:37.571,-0.212961,3.97657,8.65215,-0.222883,0.103233,0.224945,0
2024-11-29 18:14:37.572,-0.212961,3.97657,8.65215,-0.22105,0.105066,0.22922,0
2024-11-29 18:14:37.572,-0.212961,3.97657,8.65215,-0.22105,0.105066,0.22922,0
2024-11-29 18:14:37.572,-0.212961,3.97657,8.65215,-0.22105,0.105066,0.22922,0
2024-11-29 18:14:37.572,-0.212961,3.97657,8.65215,-0.22105,0.105066,0.22922,0
2024-11-29 18:14:37.573,-0.210568,3.97657,8.64258,-0.22105,0.105066,0.22922,0
2024-11-29 18:14:37.573,-0.210568,3.97657,8.64258,-0.22105,0.105066,0.22922,0
2024-11-29 18:14:37.573,-0.210568,3.97657,8.64258,-0.22105,0.105066,0.22922,0
2024-11-29 18:14:37.573,-0.210568,3.97657,8.64258,-0.22105,0.105066,0.22922,0
2024-11-29 18:14:37.574,-0.210568,3.97657,8.64258,-0.224715,0.103233,0.234107,0
2024-11-29 18:14:37.574,-0.210568,3.97657,8.64258,-0.224715,0.103233,0.234107,0
2024-11-29 18:14:37.574,-0.210568,3.97657,8.64258,-0.224715,0.103233,0.234107,0
2024-11-29 18:14:37.576,-0.205783,3.99093,8.63779,-0.224715,0.103233,0.234107,0
2024-11-29 18:14:37.576,-0.205783,3.99093,8.63779,-0.224715,0.103233,0.234107,0
2024-11-29 18:14:37.577,-0.205783,3.99093,8.63779,-0.224715,0.102011,0.236551,0
2024-11-29 18:14:37.577,-0.205783,3.99093,8.63779,-0.224715,0.102011,0.236551,0
2024-11-29 18:14:37.577,-0.205783,3.99093,8.63779,-0.224715,0.102011,0.236551,0
2024-11-29 18:14:37.579,-0.198604,3.99332,8.64497,-0.226548,0.0977356,0.240216,0
2024-11-29 18:14:37.579,-0.198604,3.99332,8.64497,-0.226548,0.0977356,0.240216,0
2024-11-29 18:14:37.579,-0.198604,3.99332,8.64497,-0.226548,0.0977356,0.240216,0
2024-11-29 18:14:37.580,-0.172283,4.0005,8.64975,-0.226548,0.0977356,0.240216,0
2024-11-29 18:14:37.581,-0.172283,4.0005,8.64975,-0.226548,0.0977356,0.240216,0
2024-11-29 18:14:37.581,-0.172283,4.0005,8.64975,-0.226548,0.0977356,0.240216,0
2024-11-29 18:14:37.583,-0.145962,3.99811,8.64018,-0.230824,0.0940705,0.240827,0
2024-11-29 18:14:37.583,-0.172283,3.99811,8.64018,-0.230824,0.0940705,0.240827,0
2024-11-29 18:14:37.583,-0.145962,3.99811,8.64018,-0.230824,0.0940705,0.240827,0
2024-11-29 18:14:37.583,-0.145962,3.99811,8.64018,-0.230824,0.0940705,0.240827,0
2024-11-29 18:14:37.584,-0.145962,3.99811,8.64018,-0.2351,0.0891837,0.244492,0
2024-11-29 18:14:37.584,-0.145962,3.99811,8.64018,-0.2351,0.0891837,0.244492,0
2024-11-29 18:14:37.584,-0.145962,3.99811,8.64018,-0.2351,0.0891837,0.244492,0
2024-11-29 18:14:37.584,-0.145962,3.99811,8.64018,-0.2351,0.0891837,0.244492,0
2024-11-29 18:14:37.585,-0.129212,3.99332,8.64736,-0.2351,0.0891837,0.244492,0
2024-11-29 18:14:37.585,-0.129212,3.99332,8.64736,-0.2351,0.0891837,0.244492,0
2024-11-29 18:14:37.585,-0.129212,3.99332,8.64736,-0.2351,0.0891837,0.244492,0
2024-11-29 18:14:37.585,-0.129212,3.99332,8.64736,-0.2351,0.0891837,0.244492,0
2024-11-29 18:14:37.585,-0.129212,3.99332,8.64736,-0.2351,0.0891837,0.244492,0
2024-11-29 18:14:37.586,-0.129212,3.99332,8.64736,-0.240597,0.0867403,0.246935,0
2024-11-29 18:14:37.586,-0.129212,3.99332,8.64736,-0.240597,0.0867403,0.246935,0
2024-11-29 18:14:37.586,-0.129212,3.99332,8.64736,-0.240597,0.0867403,0.246935,0
2024-11-29 18:14:37.586,-0.129212,3.99332,8.64736,-0.240597,0.0867403,0.246935,0
2024-11-29 18:14:37.587,-0.107677,4.01007,8.64975,-0.240597,0.0867403,0.246935,0
2024-11-29 18:14:37.588,-0.107677,4.01007,8.64975,-0.240597,0.0867403,0.246935,0
2024-11-29 18:14:37.590,-0.0885344,4.03639,8.65933,-0.247317,0.0836861,0.248768,0
2024-11-29 18:14:37.590,-0.0885344,4.03639,8.65933,-0.247317,0.0836861,0.248768,0
2024-11-29 18:14:37.590,-0.0885344,4.03639,8.65933,-0.247317,0.0836861,0.248768,0
2024-11-29 18:14:37.591,-0.0885344,4.03639,8.65933,-0.251593,0.0842969,0.249378,0
2024-11-29 18:14:37.591,-0.0885344,4.03639,8.65933,-0.251593,0.0842969,0.249378,0
2024-11-29 18:14:37.591,-0.0885344,4.03639,8.65933,-0.251593,0.0842969,0.249378,0
2024-11-29 18:14:37.592,-0.0717847,4.05793,8.67368,-0.251593,0.0842969,0.249378,0
2024-11-29 18:14:37.592,-0.0717847,4.05793,8.67368,-0.251593,0.0842969,0.249378,0
2024-11-29 18:14:37.592,-0.0717847,4.05793,8.67368,-0.251593,0.0842969,0.249378,0
2024-11-29 18:14:37.593,-0.0717847,4.05793,8.67368,-0.258312,0.0824644,0.2506,0
2024-11-29 18:14:37.593,-0.0717847,4.05793,8.67368,-0.258312,0.0824644,0.2506,0
2024-11-29 18:14:37.593,-0.0717847,4.05793,8.67368,-0.258312,0.0824644,0.2506,0
2024-11-29 18:14:37.593,-0.0717847,4.05793,8.67368,-0.258312,0.0824644,0.2506,0
2024-11-29 18:14:37.593,-0.0717847,4.05793,8.67368,-0.258312,0.0824644,0.2506,0
2024-11-29 18:14:37.593,-0.0717847,4.05793,8.67368,-0.258312,0.0824644,0.2506,0
2024-11-29 18:14:37.594,-0.0622134,4.07946,8.7003,-0.258312,0.0824644,0.2506,0
2024-11-29 18:14:37.594,-0.0622134,4.07946,8.7003,-0.258312,0.0824644,0.2506,0
2024-11-29 18:14:37.594,-0.0622134,4.07946,8.7003,-0.258312,0.0824644,0.2506,0
2024-11-29 18:14:37.595,-0.0622134,4.07946,8.7003,-0.258312,0.0824644,0.2506,0
2024-11-29 18:14:37.595,-0.0622134,4.07946,8.7003,-0.258312,0.0824644,0.2506,0
2024-11-29 18:14:37.595,-0.0622134,4.07946,8.7003,-0.258312,0.0824644,0.2506,0
2024-11-29 18:14:37.595,-0.0622134,4.07946,8.7003,-0.258312,0.0824644,0.2506,0
2024-11-29 18:14:37.595,-0.0622134,4.07946,8.7003,-0.258312,0.0824644,0.2506,0
2024-11-29 18:14:37.595,-0.0622134,4.07946,8.7003,-0.258312,0.0824644,0.2506,0
2024-11-29 18:14:37.595,-0.0622134,4.07946,8.7003,-0.258312,0.0824644,0.2506,0
2024-11-29 18:14:37.597,-0.0598206,4.09621,8.7338,-0.265031,0.0842969,0.2506,0
2024-11-29 18:14:37.597,-0.0598206,4.09621,8.7338,-0.265031,0.0842969,0.2506,0
2024-11-29 18:14:37.597,-0.0598206,4.09621,8.7338,-0.265031,0.0842969,0.2506,0
2024-11-29 18:14:37.598,-0.0598206,4.09621,8.7338,-0.272362,0.0855186,0.248157,0
2024-11-29 18:14:37.598,-0.0598206,4.09621,8.7338,-0.272362,0.0855186,0.248157,0
2024-11-29 18:14:37.598,-0.0598206,4.09621,8.7338,-0.272362,0.0855186,0.248157,0
2024-11-29 18:14:37.599,-0.0358923,4.11057,8.75294,-0.272362,0.0855186,0.248157,0
2024-11-29 18:14:37.599,-0.0358923,4.11057,8.75294,-0.272362,0.0855186,0.248157,0
2024-11-29 18:14:37.599,-0.0358923,4.11057,8.75294,-0.272362,0.0855186,0.248157,0
2024-11-29 18:14:37.599,-0.0358923,4.11057,8.75294,-0.272362,0.0855186,0.248157,0
2024-11-29 18:14:37.599,-0.0358923,4.11057,8.75294,-0.272362,0.0855186,0.248157,0
2024-11-29 18:14:37.600,-0.0358923,4.11057,8.75294,-0.27847,0.0910162,0.246935,0
2024-11-29 18:14:37.600,-0.0358923,4.11057,8.75294,-0.27847,0.0910162,0.246935,0
2024-11-29 18:14:37.600,-0.0358923,4.11057,8.75294,-0.27847,0.0910162,0.246935,0
2024-11-29 18:14:37.602,-0.0167498,4.12253,8.77927,-0.27847,0.0910162,0.246935,0
2024-11-29 18:14:37.602,-0.0167498,4.12253,8.77927,-0.27847,0.0910162,0.246935,0
2024-11-29 18:14:37.602,-0.0167498,4.12253,8.77927,-0.27847,0.0910162,0.246935,0
2024-11-29 18:14:37.602,-0.0167498,4.12253,8.77927,-0.27847,0.0910162,0.246935,0
2024-11-29 18:14:37.603,-0.0167498,4.12253,8.77927,-0.287633,0.095903,0.246324,0
2024-11-29 18:14:37.603,-0.0167498,4.12253,8.77927,-0.287633,0.095903,0.246324,0
2024-11-29 18:14:37.603,-0.0167498,4.12253,8.77927,-0.287633,0.095903,0.246324,0
2024-11-29 18:14:37.603,-0.0167498,4.12253,8.77927,-0.287633,0.095903,0.246324,0
2024-11-29 18:14:37.604,-0.00478565,4.13211,8.82234,-0.287633,0.095903,0.246324,0
2024-11-29 18:14:37.604,-0.00478565,4.13211,8.82234,-0.287633,0.095903,0.246324,0
2024-11-29 18:14:37.604,-0.00478565,4.13211,8.82234,-0.287633,0.095903,0.246324,0
2024-11-29 18:14:37.605,-0.00478565,4.13211,8.82234,-0.29313,0.0989573,0.244492,0
2024-11-29 18:14:37.605,-0.00478565,4.13211,8.82234,-0.29313,0.0989573,0.244492,0
2024-11-29 18:14:37.605,-0.00478565,4.13211,8.82234,-0.29313,0.0989573,0.244492,0
2024-11-29 18:14:37.605,-0.00478565,4.13211,8.82234,-0.29313,0.0989573,0.244492,0
2024-11-29 18:14:37.605,-0.00478565,4.13211,8.82234,-0.29313,0.0989573,0.244492,0
2024-11-29 18:14:37.605,-0.00478565,4.13211,8.82234,-0.29313,0.0989573,0.244492,0
2024-11-29 18:14:37.606,0.00239282,4.14646,8.8678,-0.29313,0.0989573,0.244492,0
2024-11-29 18:14:37.606,0.00239282,4.14646,8.8678,-0.29313,0.0989573,0.244492,0
2024-11-29 18:14:37.606,0.00239282,4.14646,8.8678,-0.29313,0.0989573,0.244492,0
2024-11-29 18:14:37.606,0.00239282,4.14646,8.8678,-0.29313,0.0989573,0.244492,0
2024-11-29 18:14:37.607,0.00239282,4.14646,8.8678,-0.299239,0.104455,0.241437,0
2024-11-29 18:14:37.607,0.00239282,4.14646,8.8678,-0.299239,0.104455,0.241437,0
2024-11-29 18:14:37.607,0.00239282,4.14646,8.8678,-0.299239,0.104455,0.241437,0
2024-11-29 18:14:37.607,0.00239282,4.14646,8.8678,-0.299239,0.104455,0.241437,0
2024-11-29 18:14:37.609,0.0,4.16082,8.90848,-0.299239,0.104455,0.241437,0
2024-11-29 18:14:37.609,0.0,4.16082,8.90848,-0.299239,0.104455,0.241437,0
2024-11-29 18:14:37.609,0.0,4.16082,8.90848,-0.299239,0.104455,0.241437,0
2024-11-29 18:14:37.609,0.0,4.16082,8.90848,-0.299239,0.104455,0.241437,0
2024-11-29 18:14:37.610,0.0,4.16082,8.90848,-0.30718,0.107509,0.238994,0
2024-11-29 18:14:37.610,0.0,4.16082,8.90848,-0.30718,0.107509,0.238994,0
2024-11-29 18:14:37.610,0.0,4.16082,8.90848,-0.30718,0.107509,0.238994,0
2024-11-29 18:14:37.610,0.0,4.16082,8.90848,-0.30718,0.107509,0.238994,0
2024-11-29 18:14:37.610,0.0,4.16082,8.90848,-0.30718,0.107509,0.238994,0
2024-11-29 18:14:37.611,0.0,4.168,8.93959,-0.30718,0.107509,0.238994,0
2024-11-29 18:14:37.611,0.0,4.168,8.93959,-0.30718,0.107509,0.238994,0
2024-11-29 18:14:37.611,0.0,4.168,8.93959,-0.30718,0.107509,0.238994,0
2024-11-29 18:14:37.612,0.0,4.168,8.93959,-0.312067,0.112396,0.237161,0
2024-11-29 18:14:37.612,0.0,4.168,8.93959,-0.312067,0.112396,0.237161,0
2024-11-29 18:14:37.612,0.0,4.168,8.93959,-0.312067,0.112396,0.237161,0
2024-11-29 18:14:37.612,0.0,4.168,8.93959,-0.312067,0.112396,0.237161,0
2024-11-29 18:14:37.612,0.0,4.168,8.93959,-0.312067,0.112396,0.237161,0
2024-11-29 18:14:37.612,0.0,4.168,8.93959,-0.312067,0.112396,0.237161,0
2024-11-29 18:14:37.612,0.0,4.168,8.93959,-0.312067,0.112396,0.237161,0
2024-11-29 18:14:37.612,0.0,4.168,8.93959,-0.312067,0.112396,0.237161,0
2024-11-29 18:14:37.613,-0.00717847,4.168,8.98266,-0.312067,0.112396,0.237161,0
2024-11-29 18:14:37.613,-0.00717847,4.168,8.98266,-0.312067,0.112396,0.237161,0
2024-11-29 18:14:37.613,-0.00717847,4.168,8.98266,-0.312067,0.112396,0.237161,0
2024-11-29 18:14:37.614,-0.00717847,4.168,8.98266,-0.312067,0.112396,0.237161,0
2024-11-29 18:14:37.614,-0.00717847,4.168,8.98266,-0.312067,0.112396,0.237161,0
2024-11-29 18:14:37.614,-0.00717847,4.168,8.98266,-0.312067,0.112396,0.237161,0
2024-11-29 18:14:37.614,-0.00717847,4.168,8.98266,-0.312067,0.112396,0.237161,0
2024-11-29 18:14:37.616,-0.00957129,4.17039,9.04008,-0.318175,0.116061,0.233496,0
2024-11-29 18:14:37.616,-0.00957129,4.17039,9.04008,-0.318175,0.116061,0.233496,0
2024-11-29 18:14:37.616,-0.00957129,4.17039,9.04008,-0.318175,0.116061,0.233496,0
2024-11-29 18:14:37.616,-0.00957129,4.17039,9.04008,-0.318175,0.116061,0.233496,0
2024-11-29 18:14:37.616,-0.00957129,4.17039,9.04008,-0.318175,0.116061,0.233496,0
2024-11-29 18:14:37.617,-0.00957129,4.17039,9.04008,-0.325505,0.116672,0.232275,0
2024-11-29 18:14:37.617,-0.00957129,4.17039,9.04008,-0.325505,0.116672,0.232275,0
2024-11-29 18:14:37.617,-0.00957129,4.17039,9.04008,-0.325505,0.116672,0.232275,0
2024-11-29 18:14:37.617,-0.00957129,4.17039,9.04008,-0.325505,0.116672,0.232275,0
2024-11-29 18:14:37.618,-0.00239282,4.168,9.09512,-0.325505,0.116672,0.232275,0
2024-11-29 18:14:37.618,-0.00239282,4.168,9.09512,-0.325505,0.116672,0.232275,0
2024-11-29 18:14:37.618,-0.00239282,4.168,9.09512,-0.325505,0.116672,0.232275,0
2024-11-29 18:14:37.618,-0.00239282,4.168,9.09512,-0.325505,0.116672,0.232275,0
2024-11-29 18:14:37.619,-0.00239282,4.168,9.09512,-0.331003,0.113618,0.230442,0
2024-11-29 18:14:37.619,-0.00239282,4.168,9.09512,-0.331003,0.113618,0.230442,0
2024-11-29 18:14:37.619,-0.00239282,4.168,9.09512,-0.331003,0.113618,0.230442,0
2024-11-29 18:14:37.619,-0.00239282,4.168,9.09512,-0.331003,0.113618,0.230442,0
2024-11-29 18:14:37.619,-0.00239282,4.168,9.09512,-0.331003,0.113618,0.230442,0
2024-11-29 18:14:37.619,-0.00239282,4.168,9.09512,-0.331003,0.113618,0.230442,0
2024-11-29 18:14:37.620,-0.0143569,4.15843,9.14776,-0.331003,0.113618,0.230442,0
2024-11-29 18:14:37.620,-0.0143569,4.15843,9.14776,-0.331003,0.113618,0.230442,0
2024-11-29 18:14:37.620,-0.0143569,4.15843,9.14776,-0.331003,0.113618,0.230442,0
2024-11-29 18:14:37.620,-0.0143569,4.15843,9.14776,-0.331003,0.113618,0.230442,0
2024-11-29 18:14:37.621,-0.0143569,4.15843,9.14776,-0.331003,0.113618,0.230442,0
2024-11-29 18:14:37.621,-0.0143569,4.15843,9.14776,-0.331003,0.113618,0.230442,0
2024-11-29 18:14:37.621,-0.0143569,4.15843,9.14776,-0.331003,0.113618,0.230442,0
2024-11-29 18:14:37.623,-0.0215354,4.15364,9.20519,-0.333446,0.109342,0.225555,0
2024-11-29 18:14:37.623,-0.0215354,4.15364,9.20519,-0.333446,0.109342,0.225555,0
2024-11-29 18:14:37.623,-0.0215354,4.15364,9.20519,-0.333446,0.109342,0.225555,0
2024-11-29 18:14:37.623,-0.0215354,4.15364,9.20519,-0.333446,0.109342,0.225555,0
2024-11-29 18:14:37.624,-0.0215354,4.15364,9.20519,-0.339555,0.106898,0.222501,0
2024-11-29 18:14:37.624,-0.0215354,4.15364,9.20519,-0.339555,0.106898,0.222501,0
2024-11-29 18:14:37.624,-0.0215354,4.15364,9.20519,-0.339555,0.106898,0.222501,0
2024-11-29 18:14:37.624,-0.0215354,4.15364,9.20519,-0.339555,0.106898,0.222501,0
2024-11-29 18:14:37.625,-0.0215354,4.1345,9.25783,-0.339555,0.106898,0.222501,0
2024-11-29 18:14:37.625,-0.0215354,4.1345,9.25783,-0.339555,0.106898,0.222501,0
2024-11-29 18:14:37.625,-0.0215354,4.1345,9.25783,-0.339555,0.106898,0.222501,0
2024-11-29 18:14:37.625,-0.0215354,4.1345,9.25783,-0.339555,0.106898,0.222501,0
2024-11-29 18:14:37.625,-0.0215354,4.1345,9.25783,-0.339555,0.106898,0.222501,0
2024-11-29 18:14:37.625,-0.0215354,4.1345,9.25783,-0.339555,0.106898,0.222501,0
2024-11-29 18:14:37.626,-0.0215354,4.1345,9.25783,-0.345052,0.0989573,0.219447,0
2024-11-29 18:14:37.626,-0.0215354,4.1345,9.25783,-0.345052,0.0989573,0.219447,0
2024-11-29 18:14:37.626,-0.0215354,4.1345,9.25783,-0.345052,0.0989573,0.219447,0
2024-11-29 18:14:37.626,-0.0215354,4.1345,9.25783,-0.345052,0.0989573,0.219447,0
2024-11-29 18:14:37.626,-0.0215354,4.1345,9.25783,-0.345052,0.0989573,0.219447,0
2024-11-29 18:14:37.627,-0.0239282,4.11296,9.32992,-0.345052,0.0989573,0.219447,0
2024-11-29 18:14:37.627,-0.0239282,4.11296,9.32992,-0.345052,0.0989573,0.219447,0
2024-11-29 18:14:37.628,-0.0239282,4.11296,9.32992,-0.345052,0.0989573,0.219447,0
2024-11-29 18:14:37.628,-0.0239282,4.11296,9.32992,-0.345052,0.0989573,0.219447,0
2024-11-29 18:14:37.630,-0.0119641,4.101,9.41606,-0.348107,0.0910162,0.219447,0
2024-11-29 18:14:37.630,-0.0119641,4.101,9.41606,-0.348107,0.0910162,0.219447,0
2024-11-29 18:14:37.630,-0.0119641,4.101,9.41606,-0.348107,0.0910162,0.219447,0
2024-11-29 18:14:37.631,-0.0119641,4.101,9.41606,-0.351161,0.0830752,0.217003,0
2024-11-29 18:14:37.631,-0.0119641,4.101,9.41606,-0.351161,0.0830752,0.217003,0
2024-11-29 18:14:37.631,-0.0119641,4.101,9.41606,-0.351161,0.0830752,0.217003,0
2024-11-29 18:14:37.631,-0.0119641,4.101,9.41606,-0.351161,0.0830752,0.217003,0
2024-11-29 18:14:37.632,-0.0143569,4.08903,9.50459,-0.351161,0.0830752,0.217003,0
2024-11-29 18:14:37.632,-0.0143569,4.08903,9.50459,-0.351161,0.0830752,0.217003,0
2024-11-29 18:14:37.632,-0.0143569,4.08903,9.50459,-0.351161,0.0830752,0.217003,0
2024-11-29 18:14:37.633,-0.0143569,4.08903,9.50459,-0.354215,0.0739125,0.21456,0
2024-11-29 18:14:37.633,-0.0143569,4.08903,9.50459,-0.354215,0.0739125,0.21456,0
2024-11-29 18:14:37.635,-0.0167498,4.08186,9.59073,-0.354215,0.0739125,0.21456,0
2024-11-29 18:14:37.635,-0.0167498,4.08186,9.59073,-0.354215,0.0739125,0.21456,0
2024-11-29 18:14:37.635,-0.0167498,4.08186,9.59073,-0.354215,0.0739125,0.21456,0
2024-11-29 18:14:37.636,-0.0167498,4.08186,9.59073,-0.353604,0.064139,0.213338,0
2024-11-29 18:14:37.636,-0.0167498,4.08186,9.59073,-0.353604,0.064139,0.213338,0
2024-11-29 18:14:37.636,-0.0167498,4.08186,9.59073,-0.353604,0.064139,0.213338,0
2024-11-29 18:14:37.636,-0.0167498,4.08186,9.59073,-0.353604,0.064139,0.213338,0
2024-11-29 18:14:37.636,-0.0167498,4.08186,9.59073,-0.353604,0.064139,0.213338,0
2024-11-29 18:14:37.637,-0.0239282,4.08186,9.69123,-0.353604,0.064139,0.213338,0
2024-11-29 18:14:37.637,-0.0239282,4.08186,9.69123,-0.353604,0.064139,0.213338,0
2024-11-29 18:14:37.637,-0.0239282,4.08186,9.69123,-0.353604,0.064139,0.213338,0
2024-11-29 18:14:37.638,-0.0239282,4.08186,9.69123,-0.351772,0.0549763,0.213949,0
2024-11-29 18:14:37.638,-0.0239282,4.08186,9.69123,-0.351772,0.0549763,0.213949,0
2024-11-29 18:14:37.638,-0.0239282,4.08186,9.69123,-0.351772,0.0549763,0.213949,0
2024-11-29 18:14:37.638,-0.0239282,4.08186,9.69123,-0.351772,0.0549763,0.213949,0
2024-11-29 18:14:37.639,-0.0550349,4.08425,9.81326,-0.351772,0.0549763,0.213949,0
2024-11-29 18:14:37.639,-0.0550349,4.08425,9.81326,-0.351772,0.0549763,0.213949,0
2024-11-29 18:14:37.639,-0.0550349,4.08425,9.81326,-0.351772,0.0549763,0.213949,0
2024-11-29 18:14:37.639,-0.0550349,4.08425,9.81326,-0.351772,0.0549763,0.213949,0
2024-11-29 18:14:37.640,-0.0550349,4.08425,9.81326,-0.351772,0.0549763,0.213949,0
2024-11-29 18:14:37.640,-0.0550349,4.08425,9.81326,-0.351772,0.0549763,0.213949,0
2024-11-29 18:14:37.640,-0.0550349,4.08425,9.81326,-0.351772,0.0549763,0.213949,0
2024-11-29 18:14:37.640,-0.0550349,4.08425,9.81326,-0.351772,0.0549763,0.213949,0
2024-11-29 18:14:37.640,-0.0550349,4.08425,9.81326,-0.351772,0.0549763,0.213949,0
2024-11-29 18:14:37.642,-0.0861416,4.09143,9.92124,-0.346885,0.0464244,0.212728,0
2024-11-29 18:14:37.644,-0.102891,4.09382,10.0528,-0.340776,0.0384834,0.215782,0
2024-11-29 18:14:37.644,-0.102891,4.09382,10.0528,-0.340776,0.0384834,0.215782,0
2024-11-29 18:14:37.644,-0.102891,4.09382,10.0528,-0.340776,0.0384834,0.215782,0
2024-11-29 18:14:37.644,-0.102891,4.09382,10.0528,-0.340776,0.0384834,0.215782,0
2024-11-29 18:14:37.645,-0.102891,4.09382,10.0528,-0.332225,0.0311532,0.220058,0
2024-11-29 18:14:37.645,-0.102891,4.09382,10.0528,-0.332225,0.0311532,0.220058,0
2024-11-29 18:14:37.645,-0.102891,4.09382,10.0528,-0.332225,0.0311532,0.220058,0
2024-11-29 18:14:37.645,-0.102891,4.09382,10.0528,-0.332225,0.0311532,0.220058,0
2024-11-29 18:14:37.646,-0.138784,4.09621,10.1749,-0.332225,0.0311532,0.220058,0
2024-11-29 18:14:37.646,-0.138784,4.09621,10.1749,-0.332225,0.0311532,0.220058,0
2024-11-29 18:14:37.646,-0.138784,4.09621,10.1749,-0.332225,0.0311532,0.220058,0
2024-11-29 18:14:37.647,-0.138784,4.09621,10.1749,-0.323062,0.0244339,0.220669,0
2024-11-29 18:14:37.647,-0.138784,4.09621,10.1749,-0.323062,0.0244339,0.220669,0
2024-11-29 18:14:37.647,-0.138784,4.09621,10.1749,-0.323062,0.0244339,0.220669,0
2024-11-29 18:14:37.647,-0.138784,4.09621,10.1749,-0.323062,0.0244339,0.220669,0
2024-11-29 18:14:37.647,-0.138784,4.09621,10.1749,-0.323062,0.0244339,0.220669,0
2024-11-29 18:14:37.647,-0.138784,4.09621,10.1749,-0.323062,0.0244339,0.220669,0
2024-11-29 18:14:37.649,-0.174676,4.09382,10.2921,-0.323062,0.0244339,0.220669,0
2024-11-29 18:14:37.650,-0.174676,4.09382,10.2921,-0.323062,0.0244339,0.220669,0
2024-11-29 18:14:37.650,-0.174676,4.09382,10.2921,-0.323062,0.0244339,0.220669,0
2024-11-29 18:14:37.650,-0.174676,4.09382,10.2921,-0.323062,0.0244339,0.220669,0
2024-11-29 18:14:37.652,-0.189033,4.08186,10.4025,-0.312067,0.0189363,0.223723,0
2024-11-29 18:14:37.654,-0.210568,4.08186,10.4791,-0.297406,0.0164929,0.227999,0
2024-11-29 18:14:37.657,-0.22014,4.07707,10.5532,-0.268696,0.015882,0.238383,0
2024-11-29 18:14:37.658,-0.217747,4.05554,10.6107,-0.268696,0.015882,0.238383,0
2024-11-29 18:14:37.661,-0.222533,4.05314,10.6466,-0.254036,0.0195471,0.244492,0
2024-11-29 18:14:37.664,-0.239282,4.04596,10.6753,-0.239987,0.0219905,0.2506,0
2024-11-29 18:14:37.666,-0.246461,4.03879,10.6896,-0.224715,0.023823,0.257319,0
2024-11-29 18:14:37.669,-0.248854,4.05314,10.6825,-0.207612,0.0299315,0.262817,0
2024-11-29 18:14:37.671,-0.251246,4.04836,10.6705,-0.1844,0.043981,0.274423,0
2024-11-29 18:14:37.672,-0.256032,4.03639,10.6561,-0.1844,0.043981,0.274423,0
2024-11-29 18:14:37.676,-0.277567,4.02682,10.6155,-0.174015,0.0555871,0.284197,0
2024-11-29 18:14:37.677,-0.297009,4.02443,10.5844,-0.164852,0.0653607,0.293359,0
2024-11-29 18:14:37.679,-0.292223,4.02443,10.5676,-0.156911,0.0763559,0.297635,0
2024-11-29 18:14:37.683,-0.277567,4.02682,10.5245,-0.152635,0.0891837,0.305576,0
2024-11-29 18:14:37.684,-0.248854,4.02443,10.4791,-0.145305,0.100179,0.311685,0
2024-11-29 18:14:37.686,-0.20339,4.01486,10.4384,-0.142251,0.111174,0.316572,0
2024-11-29 18:14:37.689,-0.177069,4.01007,10.4049,-0.14164,0.125835,0.321458,0
2024-11-29 18:14:37.692,-0.160319,3.99332,10.3687,-0.143473,0.155766,0.328789,0
2024-11-29 18:14:37.693,-0.131605,3.98614,10.3376,-0.143473,0.155766,0.328789,0
2024-11-29 18:14:37.696,-0.124427,3.98614,10.3328,-0.144694,0.175313,0.331843,0
2024-11-29 18:14:37.699,-0.12682,3.99093,10.3256,-0.146527,0.214407,0.33673,0
2024-11-29 18:14:37.701,-0.122034,4.0005,10.3161,-0.146527,0.214407,0.33673,0
2024-11-29 18:14:37.704,-0.122034,4.01486,10.3113,-0.146527,0.23762,0.33734,0
2024-11-29 18:14:37.705,-0.122034,4.04118,10.2969,-0.145916,0.262053,0.339784,0
2024-11-29 18:14:37.708,-0.131605,4.0675,10.2682,-0.147138,0.28832,0.341005,0
2024-11-29 18:14:37.710,-0.160319,4.07946,10.2419,-0.145916,0.311532,0.341616,0
2024-11-29 18:14:37.713,-0.191426,4.07468,10.2251,-0.147749,0.358567,0.342838,0
2024-11-29 18:14:37.715,-0.210568,4.07946,10.1892,-0.147749,0.358567,0.342838,0
2024-11-29 18:14:37.717,-0.251246,4.09621,10.1294,-0.147138,0.376893,0.34406,0
2024-11-29 18:14:37.719,-0.304188,4.09861,10.072,-0.14836,0.395829,0.343449,0
2024-11-29 18:14:37.723,-0.359223,4.101,10.0098,-0.150192,0.412933,0.343449,0
2024-11-29 18:14:37.725,-0.440578,4.1345,9.9332,-0.152635,0.426982,0.344671,0
2024-11-29 18:14:37.727,-0.52672,4.15125,9.86621,-0.15569,0.43981,0.347725,0
2024-11-29 18:14:37.729,-0.605683,4.168,9.81087,-0.159966,0.447751,0.35139,0
2024-11-29 18:14:37.732,-0.682254,4.19432,9.77259,-0.172183,0.456303,0.358109,0
2024-11-29 18:14:37.734,-0.761217,4.20389,9.72952,-0.172183,0.456303,0.358109,0
2024-11-29 18:14:37.736,-0.835394,4.21376,9.67927,-0.177069,0.452638,0.364829,0
2024-11-29 18:14:37.738,-0.9003,4.22333,9.68405,-0.183789,0.447751,0.37277,0
2024-11-29 18:14:37.741,-0.967299,4.22094,9.71516,-0.189286,0.441032,0.383154,0
2024-11-29 18:14:37.744,-1.00558,4.19432,9.71037,-0.193562,0.435534,0.395982,0
2024-11-29 18:14:37.745,-1.02712,4.168,9.67927,-0.19906,0.427593,0.405144,0
2024-11-29 18:14:37.748,-1.05105,4.18475,9.6338,-0.207612,0.416598,0.414918,0
2024-11-29 18:14:37.750,-1.10848,4.21376,9.59552,-0.216164,0.406824,0.425913,0
2024-11-29 18:14:37.752,-1.14915,4.24247,9.6003,-0.226548,0.39644,0.43813,0
2024-11-29 18:14:37.756,-1.17069,4.25205,9.62184,-0.254647,0.353681,0.462564,0
2024-11-29 18:14:37.758,-1.20658,4.2353,9.6673,-0.254647,0.353681,0.462564,0
2024-11-29 18:14:37.759,-1.21854,4.24726,9.73191,-0.266253,0.321306,0.475392,0
2024-11-29 18:14:37.763,-1.19222,4.27358,9.78694,-0.294963,0.249837,0.491274,0
2024-11-29 18:14:37.765,-1.14915,4.29033,9.8686,-0.294963,0.249837,0.491274,0
2024-11-29 18:14:37.767,-1.0989,4.3023,10.0026,-0.30718,0.208299,0.497993,0
2024-11-29 18:14:37.770,-1.04626,4.31426,10.1605,-0.328559,0.122169,0.504102,0
2024-11-29 18:14:37.772,-0.998405,4.32383,10.3161,-0.328559,0.122169,0.504102,0
2024-11-29 18:14:37.775,-0.940978,4.32862,10.4862,-0.339555,0.0745234,0.505323,0
2024-11-29 18:14:37.777,-0.890728,4.31426,10.6896,-0.341998,0.0299315,0.505934,0
2024-11-29 18:14:37.779,-0.852443,4.27837,10.9074,-0.347496,-0.0171037,0.507767,0
2024-11-29 18:14:37.781,-0.809073,4.2329,11.1206,-0.349939,-0.0604739,0.505934,0
2024-11-29 18:14:37.784,-0.768395,4.1991,11.336,-0.348107,-0.102622,0.506545,0
2024-11-29 18:14:37.786,-0.739681,4.16082,11.5756,-0.335279,-0.183865,0.514486,0
2024-11-29 18:14:37.789,-0.708575,4.11296,11.7981,-0.335279,-0.183865,0.514486,0
2024-11-29 18:14:37.791,-0.655932,4.05314,11.9943,-0.318175,-0.241896,0.526703,0
2024-11-29 18:14:37.793,-0.610469,3.97897,12.1908,-0.318175,-0.241896,0.526703,0
2024-11-29 18:14:37.796,-0.569791,3.91914,12.3703,-0.305347,-0.263275,0.535866,0
2024-11-29 18:14:37.797,-0.502792,3.87129,12.5163,-0.295574,-0.279768,0.545639,0
2024-11-29 18:14:37.800,-0.431007,3.83061,12.6625,-0.280303,-0.290763,0.555413,0
2024-11-29 18:14:37.803,-0.35683,3.78275,12.8085,-0.258312,-0.302369,0.569462,0
2024-11-29 18:14:37.805,-0.272782,3.7349,12.9377,-0.258312,-0.302369,0.569462,0
2024-11-29 18:14:37.807,-0.196211,3.7014,13.0837,-0.243041,-0.301148,0.576793,0
2024-11-29 18:14:37.810,-0.162712,3.67747,13.2299,-0.228381,-0.296872,0.585344,0
2024-11-29 18:14:37.812,-0.167498,3.65833,13.3783,-0.215553,-0.287709,0.597561,0
2024-11-29 18:14:37.814,-0.153141,3.65115,13.5242,-0.196616,-0.270605,0.611,0
2024-11-29 18:14:37.816,-0.136391,3.66072,13.6032,-0.178902,-0.241896,0.626882,0
2024-11-29 18:14:37.819,-0.131605,3.65354,13.6319,-0.161798,-0.209521,0.643986,0
2024-11-29 18:14:37.821,-0.122034,3.65115,13.6415,-0.144694,-0.169816,0.659868,0
2024-11-29 18:14:37.824,-0.11007,3.65354,13.6367,-0.128812,-0.124613,0.678193,0
2024-11-29 18:14:37.825,-0.0933201,3.65115,13.6271,-0.116595,-0.0812427,0.697129,0
2024-11-29 18:14:37.829,-0.0789631,3.64876,13.6056,-0.100713,-0.00244339,0.727061,0
2024-11-29 18:14:37.830,-0.0789631,3.64876,13.5649,-0.100713,-0.00244339,0.727061,0
2024-11-29 18:14:37.835,0.0287139,3.62692,13.4788,-0.0988809,0.0409268,0.751495,0
2024-11-29 18:14:37.836,0.0287139,3.62692,13.4788,-0.0988809,0.0409268,0.751495,0
2024-11-29 18:14:37.837,0.122034,3.58624,13.4524,-0.101935,0.0507003,0.757603,0
2024-11-29 18:14:37.839,0.244068,3.55035,13.4477,-0.111709,0.0464244,0.757603,0
2024-11-29 18:14:37.843,0.380758,3.50967,13.4788,-0.131867,0.00549763,0.744165,0
2024-11-29 18:14:37.844,0.524327,3.44267,13.5625,-0.131867,0.00549763,0.744165,0
2024-11-29 18:14:37.848,0.679861,3.36132,13.6654,-0.144694,-0.0311532,0.729504,0
2024-11-29 18:14:37.849,0.835394,3.27757,13.7806,-0.153857,-0.0763559,0.711179,0
2024-11-29 18:14:37.852,0.991227,3.16989,13.9241,-0.174015,-0.184476,0.662311,0
2024-11-29 18:14:37.855,1.13719,3.04995,14.0868,-0.174015,-0.184476,0.662311,0
2024-11-29 18:14:37.856,1.27119,2.95663,14.2902,-0.180734,-0.241896,0.634823,0
2024-11-29 18:14:37.859,1.40279,2.84656,14.5202,-0.18501,-0.295039,0.605502,0
2024-11-29 18:14:37.861,1.53709,2.69821,14.75,-0.18501,-0.295039,0.605502,0
2024-11-29 18:14:37.864,1.6663,2.56182,15.0087,-0.181345,-0.393996,0.541363,0
2024-11-29 18:14:37.865,1.78834,2.42513,15.291,-0.172183,-0.434312,0.513264,0
2024-11-29 18:14:37.868,1.87926,2.29831,15.5689,-0.160576,-0.471574,0.482111,0
2024-11-29 18:14:37.873,2.00399,2.02552,16.0597,-0.113541,-0.521664,0.427135,0
2024-11-29 18:14:37.873,2.00399,2.02552,16.0597,-0.113541,-0.521664,0.427135,0
2024-11-29 18:14:37.875,2.04227,1.89841,16.3014,-0.0817772,-0.535713,0.402701,0
2024-11-29 18:14:37.877,2.07338,1.75244,16.5048,-0.0457372,-0.5406,0.378267,0
2024-11-29 18:14:37.880,2.11406,1.61605,16.6822,-0.00603212,-0.541211,0.356277,0
2024-11-29 18:14:37.882,2.16431,1.47488,16.8568,0.0458899,-0.537546,0.33673,0
2024-11-29 18:14:37.885,2.20259,1.31186,16.9765,0.155232,-0.513723,0.303133,0
2024-11-29 18:14:37.888,2.22891,1.13719,17.0172,0.216316,-0.496008,0.285418,1
2024-11-29 18:14:37.890,2.25763,0.957727,16.9789,0.276179,-0.47585,0.270147,0
2024-11-29 18:14:37.892,2.29591,0.751645,16.8927,0.276179,-0.47585,0.270147,0
2024-11-29 18:14:37.894,2.34856,0.545863,16.7707,0.33421,-0.450194,0.257319,0
2024-11-29 18:14:37.897,2.37248,0.342473,16.5817,0.450882,-0.386055,0.234718,0
2024-11-29 18:14:37.899,2.39163,0.131605,16.3445,0.450882,-0.386055,0.234718,0
2024-11-29 18:14:37.902,2.42273,-0.0574277,16.0956,0.504636,-0.35307,0.224945,0
2024-11-29 18:14:37.903,2.43709,-0.210568,15.8369,0.551671,-0.325582,0.218836,0
2024-11-29 18:14:37.906,2.4347,-0.347258,15.5498,0.595042,-0.301148,0.21456,0
2024-11-29 18:14:37.909,2.42273,-0.469292,15.2504,0.662846,-0.264497,0.212728,0
2024-11-29 18:14:37.911,2.41316,-0.574577,14.9584,0.662846,-0.264497,0.212728,0
2024-11-29 18:14:37.913,2.41316,-0.655932,14.6758,0.68789,-0.254112,0.215782,0
2024-11-29 18:14:37.915,2.41555,-0.720539,14.4197,0.706827,-0.243117,0.218836,0
2024-11-29 18:14:37.918,2.41795,-0.770788,14.1658,0.719044,-0.229679,0.220058,0
2024-11-29 18:14:37.920,2.44188,-0.789931,13.8906,0.727595,-0.214407,0.223723,0
2024-11-29 18:14:37.922,2.47298,-0.785145,13.6104,0.734315,-0.195471,0.224945,0
2024-11-29 18:14:37.924,2.50648,-0.754038,13.352,0.734315,-0.168594,0.226166,0
2024-11-29 18:14:37.928,2.51845,-0.706182,13.1363,0.731261,-0.139273,0.22861,0
2024-11-29 18:14:37.930,2.52323,-0.648754,12.9401,0.727595,-0.107509,0.227388,0
2024-11-29 18:14:37.932,2.5331,-0.574577,12.7511,0.724541,-0.0714691,0.223112,0
2024-11-29 18:14:37.934,2.52832,-0.483649,12.545,0.715379,-0.0311532,0.215171,0
2024-11-29 18:14:37.937,2.5331,-0.395115,12.3535,0.708048,0.0134386,0.206619,0
2024-11-29 18:14:37.939,2.55703,-0.294616,12.1932,0.698275,0.0604739,0.195624,0
2024-11-29 18:14:37.942,2.57378,-0.200997,12.0206,0.688501,0.112396,0.180964,0
2024-11-29 18:14:37.944,2.56182,-0.107677,11.8149,0.667122,0.234565,0.141869,0
2024-11-29 18:14:37.946,2.55464,0.00717847,11.5923,0.667122,0.234565,0.141869,0
2024-11-29 18:14:37.949,2.52084,0.112463,11.3456,0.655515,0.300537,0.116214,0
2024-11-29 18:14:37.950,2.45145,0.174676,11.123,0.643299,0.366508,0.0917798,0
2024-11-29 18:14:37.954,2.37488,0.241675,10.9026,0.61581,0.507614,0.0386361,0
2024-11-29 18:14:37.956,2.29113,0.325723,10.6561,0.61581,0.507614,0.0386361,0
2024-11-29 18:14:37.958,2.22174,0.364008,10.4169,0.581603,0.652996,-0.0175619,0
2024-11-29 18:14:37.960,2.16431,0.385544,10.1533,0.581603,0.652996,-0.0175619,0
2024-11-29 18:14:37.962,2.09013,0.411865,9.87099,0.560223,0.717135,-0.0444391,0
2024-11-29 18:14:37.965,2.00399,0.440578,9.59073,0.51441,0.830141,-0.106135,0
2024-11-29 18:14:37.968,1.91516,0.45015,9.32034,0.486922,0.879009,-0.13851,0
2024-11-29 18:14:37.970,1.82662,0.428614,9.05923,0.486922,0.879009,-0.13851,0
2024-11-29 18:14:37.972,1.7333,0.404686,8.78644,0.45699,0.918714,-0.170885,0
2024-11-29 18:14:37.974,1.64477,0.371187,8.51815,0.425226,0.952922,-0.205092,0
2024-11-29 18:14:37.976,1.55623,0.328116,8.29801,0.388575,0.977356,-0.238078,0
2024-11-29 18:14:37.978,1.44377,0.299402,8.10629,0.350703,0.993849,-0.274729,0
2024-11-29 18:14:37.981,1.31186,0.275175,7.93161,0.314663,1.0024,-0.308936,0
2024-11-29 18:14:37.984,1.17308,0.246461,7.78325,0.27679,1.00423,-0.343143,0
2024-11-29 18:14:37.986,1.01515,0.222533,7.64686,0.238918,1.00057,-0.376129,0
2024-11-29 18:14:37.989,0.847657,0.208176,7.54367,0.200434,0.993849,-0.407282,0
2024-11-29 18:14:37.990,0.689432,0.200997,7.45035,0.166838,0.981021,-0.437214,0
2024-11-29 18:14:37.994,0.514756,0.184247,7.38335,0.0996445,0.942537,-0.487914,0
2024-11-29 18:14:37.995,0.347258,0.145962,7.34028,0.0996445,0.942537,-0.487914,0
2024-11-29 18:14:37.998,0.191426,0.114855,7.31396,0.0684913,0.914438,-0.509294,0
2024-11-29 18:14:38.000,0.0358923,0.0765703,7.30678,0.0385597,0.881453,-0.526398,0
2024-11-29 18:14:38.003,-0.107677,0.026321,7.30918,0.0129041,0.845413,-0.54228,0
2024-11-29 18:14:38.005,-0.241675,-0.00478565,7.3331,-0.0127514,0.800821,-0.554497,0
2024-11-29 18:14:38.008,-0.378365,-0.0430708,7.37378,-0.0530674,0.706139,-0.572822,0
2024-11-29 18:14:38.009,-0.524327,-0.0957129,7.43121,-0.0530674,0.706139,-0.572822,0
2024-11-29 18:14:38.012,-0.658325,-0.138784,7.49103,-0.0695602,0.654217,-0.577709,0
2024-11-29 18:14:38.015,-0.775574,-0.174676,7.56999,-0.090329,0.541211,-0.582596,0
2024-11-29 18:14:38.016,-0.878764,-0.210568,7.67797,-0.090329,0.541211,-0.582596,0
2024-11-29 18:14:38.018,-1.01037,-0.232104,7.76172,-0.0952158,0.480126,-0.581985,0
2024-11-29 18:14:38.021,-1.15872,-0.251246,7.83829,-0.0952158,0.419652,-0.575265,0
2024-11-29 18:14:38.024,-1.27597,-0.277567,7.95793,-0.0933833,0.362232,-0.569157,0
2024-11-29 18:14:38.027,-1.38365,-0.294616,8.07996,-0.0897182,0.300537,-0.559383,0
2024-11-29 18:14:38.029,-1.47966,-0.316152,8.19512,-0.0781121,0.240063,-0.547166,0
2024-11-29 18:14:38.031,-1.57777,-0.332901,8.31237,-0.0457372,0.121559,-0.518457,0
2024-11-29 18:14:38.034,-1.67827,-0.34008,8.42244,-0.0249684,0.064139,-0.49891,0
2024-11-29 18:14:38.035,-1.74527,-0.359223,8.52533,-0.0249684,0.064139,-0.49891,0
2024-11-29 18:14:38.040,-1.8003,-0.426222,8.68086,0.021456,-0.0445919,-0.45615,0
2024-11-29 18:14:38.041,-1.86251,-0.426222,8.68086,0.0483333,-0.095903,-0.432327,0
2024-11-29 18:14:38.043,-1.9008,-0.452543,8.7362,0.0752106,-0.144771,-0.406061,0
2024-11-29 18:14:38.045,-1.92233,-0.483649,8.78405,0.0752106,-0.144771,-0.406061,0
2024-11-29 18:14:38.048,-1.94865,-0.512363,8.81994,0.131409,-0.233344,-0.352917,0
2024-11-29 18:14:38.049,-1.9681,-0.531506,8.84387,0.131409,-0.233344,-0.352917,0
2024-11-29 18:14:38.051,-1.98963,-0.548256,8.86062,0.158897,-0.272438,-0.324818,0
2024-11-29 18:14:38.055,-2.01595,-0.54347,8.84148,0.183331,-0.309089,-0.29733,0
2024-11-29 18:14:38.057,-2.03988,-0.548256,8.82712,0.229144,-0.370784,-0.235634,0
2024-11-29 18:14:38.060,-2.04706,-0.54347,8.80798,0.229144,-0.370784,-0.235634,0
2024-11-29 18:14:38.061,-2.04706,-0.521934,8.77927,0.252356,-0.395218,-0.204481,0
2024-11-29 18:14:38.063,-2.06142,-0.500399,8.73859,0.271293,-0.416598,-0.173328,0
2024-11-29 18:14:38.067,-2.0686,-0.471685,8.69522,0.289007,-0.433702,-0.142175,0
2024-11-29 18:14:38.068,-2.05424,-0.459721,8.64975,0.3055,-0.447751,-0.112243,0
2024-11-29 18:14:38.070,-2.00638,-0.423829,8.58276,0.317106,-0.459357,-0.0835334,0
2024-11-29 18:14:38.073,-1.9657,-0.373579,8.51097,0.32749,-0.467909,-0.0566561,0
2024-11-29 18:14:38.075,-1.93191,-0.347258,8.4344,0.333599,-0.479515,-0.029168,0
2024-11-29 18:14:38.078,-1.89601,-0.316152,8.3674,0.339097,-0.485624,-0.00412322,0
2024-11-29 18:14:38.080,-1.8673,-0.272782,8.31715,0.345205,-0.49051,0.0196998,0
2024-11-29 18:14:38.083,-1.82662,-0.239282,8.2693,0.347038,-0.491121,0.0441337,0
2024-11-29 18:14:38.085,-1.7668,-0.22014,8.21665,0.345816,-0.49051,0.0661242,0
2024-11-29 18:14:38.088,-1.71416,-0.191426,8.16162,0.337875,-0.478293,0.104608,0
2024-11-29 18:14:38.090,-1.67348,-0.157926,8.09432,0.337875,-0.478293,0.104608,0
2024-11-29 18:14:38.092,-1.62802,-0.122034,8.03689,0.332988,-0.469742,0.122933,0
2024-11-29 18:14:38.095,-1.58255,-0.0837488,7.99382,0.326269,-0.459357,0.140037,0
2024-11-29 18:14:38.097,-1.52273,-0.0526421,7.95554,0.318939,-0.445919,0.155919,0
2024-11-29 18:14:38.100,-1.46052,-0.0239282,7.90289,0.295726,-0.422095,0.18585,0
2024-11-29 18:14:38.102,-1.41506,0.0287139,7.85743,0.295726,-0.422095,0.18585,0
2024-11-29 18:14:38.104,-1.35015,0.0741775,7.82872,0.268849,-0.394607,0.206619,0
2024-11-29 18:14:38.107,-1.2664,0.107677,7.78804,0.254189,-0.379947,0.217003,0
2024-11-29 18:14:38.109,-1.20658,0.136391,7.74258,0.235863,-0.365898,0.224945,0
2024-11-29 18:14:38.111,-1.16351,0.177069,7.7019,0.235863,-0.365898,0.224945,0
2024-11-29 18:14:38.113,-1.10848,0.229711,7.67318,0.219371,-0.351237,0.22861,0
2024-11-29 18:14:38.116,-1.06301,0.292223,7.65404,0.18272,-0.315197,0.237161,0
2024-11-29 18:14:38.118,-1.01515,0.352044,7.64686,0.18272,-0.315197,0.237161,0
2024-11-29 18:14:38.121,-0.96012,0.395115,7.62293,0.144236,-0.28099,0.242659,0
2024-11-29 18:14:38.123,-0.909871,0.435793,7.59661,0.1253,-0.264497,0.242659,0
2024-11-29 18:14:38.125,-0.857229,0.478864,7.6014,0.1253,-0.264497,0.242659,0
2024-11-29 18:14:38.128,-0.80668,0.493221,7.60858,0.085595,-0.237009,0.240216,0
2024-11-29 18:14:38.130,-0.766002,0.521934,7.60618,0.085595,-0.237009,0.240216,0
2024-11-29 18:14:38.132,-0.732503,0.574577,7.62054,0.0642153,-0.225403,0.235329,0
2024-11-29 18:14:38.134,-0.696611,0.615255,7.64686,0.0452791,-0.216851,0.232886,0
2024-11-29 18:14:38.136,-0.675075,0.651147,7.65883,0.0257319,-0.20891,0.229831,0
2024-11-29 18:14:38.139,-0.665504,0.687039,7.67797,0.00618483,-0.200969,0.226166,0
2024-11-29 18:14:38.142,-0.679861,0.720539,7.7019,-0.0121406,-0.193028,0.220058,0
2024-11-29 18:14:38.144,-0.694218,0.768395,7.73061,-0.0316877,-0.18753,0.215171,0
2024-11-29 18:14:38.146,-0.691825,0.818644,7.77847,-0.046348,-0.182032,0.210284,0
2024-11-29 18:14:38.148,-0.71336,0.847657,7.82154,-0.0652843,-0.175313,0.206008,0
2024-11-29 18:14:38.151,-0.739681,0.878764,7.87657,-0.0799446,-0.169816,0.202343,0
2024-11-29 18:14:38.153,-0.773181,0.905085,7.934,-0.0964375,-0.16554,0.198067,0
2024-11-29 18:14:38.156,-0.789931,0.931406,7.96989,-0.122093,-0.160042,0.191348,0
2024-11-29 18:14:38.157,-0.768395,0.945763,8.02014,-0.122093,-0.160042,0.191348,0
2024-11-29 18:14:38.161,-0.751645,0.940978,8.07996,-0.133699,-0.157599,0.188294,0
2024-11-29 18:14:38.163,-0.739681,0.926621,8.12303,-0.146527,-0.157599,0.184018,0
2024-11-29 18:14:38.165,-0.742074,0.919442,8.17119,-0.159355,-0.155766,0.179131,0
2024-11-29 18:14:38.167,-0.768395,0.919442,8.2334,-0.172183,-0.154544,0.177909,0
2024-11-29 18:14:38.170,-0.799502,0.931406,8.29083,-0.182567,-0.155155,0.17852,0
2024-11-29 18:14:38.173,-0.82343,0.933799,8.35065,-0.192341,-0.153323,0.177298,0
2024-11-29 18:14:38.176,-0.876371,0.945763,8.5014,-0.205779,-0.153934,0.182796,0
2024-11-29 18:14:38.177,-0.876371,0.945763,8.5014,-0.205779,-0.153934,0.182796,0
2024-11-29 18:14:38.180,-0.907478,0.94337,8.57079,-0.211888,-0.156988,0.184629,0
2024-11-29 18:14:38.182,-0.912264,0.955334,8.64258,-0.217996,-0.164318,0.194402,0
2024-11-29 18:14:38.184,-0.905085,0.96012,8.71705,-0.217996,-0.164318,0.194402,0
2024-11-29 18:14:38.186,-0.895514,0.938585,8.7673,-0.221661,-0.171037,0.1999,0
2024-11-29 18:14:38.188,-0.885943,0.938585,8.81516,-0.22105,-0.174702,0.205397,0
2024-11-29 18:14:38.191,-0.859622,0.94337,8.85584,-0.22105,-0.178978,0.210895,0
2024-11-29 18:14:38.193,-0.821037,0.94337,8.88694,-0.221661,-0.182032,0.21456,0
2024-11-29 18:14:38.195,-0.789931,0.945763,8.92284,-0.221661,-0.183865,0.219447,0
2024-11-29 18:14:38.198,-0.751645,0.950549,8.9683,-0.22105,-0.18753,0.224945,0
2024-11-29 18:14:38.205,-0.643968,0.998405,9.08315,-0.216774,-0.196693,0.240216,0
2024-11-29 18:14:38.205,-0.643968,0.998405,9.08315,-0.216774,-0.196693,0.240216,0
2024-11-29 18:14:38.206,-0.643968,0.998405,9.08315,-0.216774,-0.196693,0.240216,0
2024-11-29 18:14:38.207,-0.610469,1.01994,9.1334,-0.214331,-0.199747,0.243881,0
2024-11-29 18:14:38.209,-0.574577,1.03669,9.18126,-0.213109,-0.205245,0.2506,0
2024-11-29 18:14:38.213,-0.54347,1.04148,9.21955,-0.208833,-0.210131,0.260374,0
2024-11-29 18:14:38.215,-0.500399,1.06062,9.25065,-0.208833,-0.210131,0.260374,0
2024-11-29 18:14:38.217,-0.462114,1.1013,9.28445,-0.205779,-0.207077,0.262206,0
2024-11-29 18:14:38.219,-0.423829,1.13001,9.3347,-0.202725,-0.207688,0.269536,0
2024-11-29 18:14:38.222,-0.383151,1.15155,9.40409,-0.19906,-0.20219,0.275645,0
2024-11-29 18:14:38.223,-0.342473,1.17069,9.44956,-0.192951,-0.198525,0.279921,0
2024-11-29 18:14:38.226,-0.311366,1.20419,9.49263,-0.186232,-0.191806,0.282975,0
2024-11-29 18:14:38.229,-0.292223,1.24965,9.5357,-0.174626,-0.170426,0.297024,0
2024-11-29 18:14:38.231,-0.260818,1.2999,9.5692,-0.174626,-0.170426,0.297024,0
2024-11-29 18:14:38.233,-0.232104,1.3334,9.58834,-0.164242,-0.156377,0.30069,0
2024-11-29 18:14:38.235,-0.196211,1.36211,9.59791,-0.155079,-0.142327,0.305576,0
2024-11-29 18:14:38.238,-0.157926,1.4004,9.60748,-0.144694,-0.127667,0.311685,0
2024-11-29 18:14:38.240,-0.133998,1.42941,9.6027,-0.133699,-0.113007,0.317793,0
2024-11-29 18:14:38.243,-0.107677,1.46291,9.59552,-0.119039,-0.0861295,0.324513,0
2024-11-29 18:14:38.246,-0.0909273,1.4988,9.57398,-0.119039,-0.0861295,0.324513,0
2024-11-29 18:14:38.247,-0.0933201,1.52034,9.54048,-0.109876,-0.0726908,0.329399,0
2024-11-29 18:14:38.250,-0.0933201,1.54905,9.52373,-0.100713,-0.0610847,0.333064,0
2024-11-29 18:14:38.253,-0.102891,1.57537,9.5022,-0.086664,-0.0354291,0.342838,0
2024-11-29 18:14:38.254,-0.100499,1.60887,9.48066,-0.086664,-0.0354291,0.342838,0
2024-11-29 18:14:38.257,-0.0957129,1.64477,9.46391,-0.0787229,-0.0256556,0.350168,0
2024-11-29 18:14:38.259,-0.0909273,1.67827,9.43281,-0.0726145,-0.0177146,0.355666,0
2024-11-29 18:14:38.261,-0.0741775,1.70698,9.41606,-0.0658951,-0.0128278,0.361163,0
2024-11-29 18:14:38.264,-0.0622134,1.72134,9.39931,-0.0591758,-0.0103844,0.366661,0
2024-11-29 18:14:38.266,-0.040678,1.74766,9.37538,-0.0542891,-0.0122169,0.371548,0
2024-11-29 18:14:38.268,-0.00478565,1.78594,9.3682,-0.0500131,-0.0128278,0.375824,0
2024-11-29 18:14:38.271,0.0287139,1.82662,9.34427,-0.0432938,-0.0140495,0.377045,0
2024-11-29 18:14:38.274,0.0622134,1.86491,9.33709,-0.0390179,-0.015882,0.378878,0
2024-11-29 18:14:38.276,0.102891,1.90558,9.34666,-0.0329094,-0.0177146,0.380711,0
2024-11-29 18:14:38.279,0.136391,1.94865,9.34906,-0.022525,-0.0189363,0.381321,0
2024-11-29 18:14:38.281,0.174676,1.99681,9.37777,-0.0127514,-0.0183254,0.382543,0
2024-11-29 18:14:38.283,0.229711,2.06142,9.41127,-0.0127514,-0.0183254,0.382543,0
2024-11-29 18:14:38.285,0.275175,2.12602,9.43759,-0.00664296,-0.0164929,0.380711,0
2024-11-29 18:14:38.287,0.325723,2.18824,9.47588,0.0019089,-0.0164929,0.377656,0
2024-11-29 18:14:38.290,0.387936,2.21934,9.51177,0.0129041,-0.0177146,0.377656,0
2024-11-29 18:14:38.292,0.4334,2.2672,9.5333,0.0226777,-0.0171037,0.371548,0
2024-11-29 18:14:38.294,0.481256,2.33181,9.56202,0.0367272,-0.0116061,0.366661,0
2024-11-29 18:14:38.297,0.531506,2.37488,9.58595,0.0471116,-0.00671932,0.356888,0
2024-11-29 18:14:38.300,0.598505,2.41795,9.58355,0.0605502,-0.00183254,0.348946,0
2024-11-29 18:14:38.302,0.646361,2.46341,9.57159,0.0862058,0.020158,0.331232,0
2024-11-29 18:14:38.305,0.675075,2.4993,9.54527,0.0862058,0.020158,0.331232,0
2024-11-29 18:14:38.306,0.715753,2.54267,9.51655,0.0965902,0.0311532,0.321458,0
2024-11-29 18:14:38.309,0.737288,2.57857,9.48784,0.120413,0.0525329,0.299468,0
2024-11-29 18:14:38.311,0.76361,2.6001,9.45673,0.120413,0.0525329,0.299468,0
2024-11-29 18:14:38.314,0.801895,2.62164,9.43041,0.129576,0.064139,0.28664,0
2024-11-29 18:14:38.315,0.82343,2.64078,9.39452,0.13935,0.07208,0.275034,0
2024-11-29 18:14:38.319,0.85005,2.67189,9.35624,0.155842,0.087962,0.2506,0
2024-11-29 18:14:38.320,0.878764,2.69581,9.3012,0.155842,0.087962,0.2506,0
2024-11-29 18:14:38.326,0.929013,2.74128,9.20519,0.172946,0.100179,0.226166,0
2024-11-29 18:14:38.326,0.929013,2.74128,9.20519,0.172946,0.100179,0.226166,0
2024-11-29 18:14:38.330,0.945763,2.75324,9.0999,0.180276,0.104455,0.197456,0
2024-11-29 18:14:38.332,0.955334,2.75563,9.06401,0.188828,0.109342,0.18585,0
2024-11-29 18:14:38.333,0.955334,2.75563,9.06401,0.194326,0.109953,0.171801,0
2024-11-29 18:14:38.335,0.972084,2.77717,9.03291,0.194326,0.109953,0.171801,0
2024-11-29 18:14:38.336,0.974477,2.79871,8.99223,0.196769,0.111174,0.160195,0
2024-11-29 18:14:38.340,0.952942,2.81785,8.9683,0.199213,0.113618,0.145534,0
2024-11-29 18:14:38.342,0.938585,2.86331,8.95155,0.204099,0.125224,0.122322,0
2024-11-29 18:14:38.345,0.926621,2.90638,8.93959,0.204099,0.125224,0.122322,0
2024-11-29 18:14:38.347,0.893121,2.95902,8.9348,0.215705,0.139273,0.09911,0
2024-11-29 18:14:38.348,0.8668,3.00449,8.94198,0.215705,0.139273,0.09911,0
2024-11-29 18:14:38.351,0.842872,3.0332,8.95394,0.222425,0.149047,0.0899473,0
2024-11-29 18:14:38.353,0.80668,3.06431,8.95394,0.228533,0.15882,0.0801737,0
2024-11-29 18:14:38.355,0.773181,3.11007,8.94916,0.235253,0.169205,0.0716218,0
2024-11-29 18:14:38.358,0.749253,3.15314,8.93959,0.241361,0.181422,0.0649025,0
2024-11-29 18:14:38.361,0.71336,3.19382,8.9348,0.257243,0.205245,0.0520747,0
2024-11-29 18:14:38.362,0.682254,3.2345,8.89891,0.257243,0.205245,0.0520747,0
2024-11-29 18:14:38.365,0.663111,3.27278,8.85823,0.264573,0.217462,0.0447446,0
2024-11-29 18:14:38.368,0.63679,3.3015,8.8343,0.277401,0.243117,0.0300842,0
2024-11-29 18:14:38.370,0.615255,3.30868,8.78166,0.277401,0.243117,0.0300842,0
2024-11-29 18:14:38.372,0.600898,3.32782,8.71705,0.281677,0.248615,0.0215324,0
2024-11-29 18:14:38.374,0.576969,3.3661,8.65454,0.284731,0.254723,0.014813,0
2024-11-29 18:14:38.378,0.533899,3.42114,8.58515,0.285342,0.257778,0.00198525,0
2024-11-29 18:14:38.380,0.498006,3.47378,8.52772,0.282288,0.256556,-0.00290152,0
2024-11-29 18:14:38.382,0.471685,3.49771,8.48465,0.27679,0.255334,-0.0077883,0
2024-11-29 18:14:38.385,0.447757,3.53599,8.46072,0.27679,0.255334,-0.0077883,0
2024-11-29 18:14:38.387,0.431007,3.59821,8.42722,0.268238,0.240674,-0.0218378,0
2024-11-29 18:14:38.389,0.407079,3.65593,8.40329,0.259686,0.235176,-0.0279463,0
2024-11-29 18:14:38.392,0.397508,3.71097,8.42722,0.259686,0.235176,-0.0279463,0
2024-11-29 18:14:38.394,0.404686,3.77318,8.44636,0.255411,0.226013,-0.0303897,0
2024-11-29 18:14:38.395,0.411865,3.8354,8.45833,0.24808,0.216851,-0.0389415,0
2024-11-29 18:14:38.400,0.481256,3.92393,8.55883,0.237696,0.197915,-0.0542127,0
2024-11-29 18:14:38.400,0.440578,3.92393,8.55883,0.237696,0.197915,-0.0542127,0
2024-11-29 18:14:38.403,0.502792,3.96939,8.59711,0.231587,0.189363,-0.0627646,0
2024-11-29 18:14:38.406,0.538684,4.01725,8.64736,0.223036,0.169816,-0.0823117,0
2024-11-29 18:14:38.407,0.586541,4.07229,8.70509,0.223036,0.169816,-0.0823117,0
2024-11-29 18:14:38.411,0.622433,4.10339,8.7673,0.212651,0.153323,-0.1098,0
2024-11-29 18:14:38.412,0.65354,4.1345,8.83191,0.212651,0.153323,-0.1098,0
2024-11-29 18:14:38.414,0.689432,4.18235,8.89173,0.21204,0.14416,-0.123238,0
2024-11-29 18:14:38.417,0.742074,4.21376,8.97069,0.205932,0.134997,-0.13851,0
2024-11-29 18:14:38.419,0.789931,4.24008,9.06641,0.203488,0.124002,-0.15317,0
2024-11-29 18:14:38.422,0.82343,4.28076,9.16212,0.202878,0.112396,-0.167219,0
2024-11-29 18:14:38.425,0.859622,4.3023,9.25305,0.203488,0.0897945,-0.203259,0
2024-11-29 18:14:38.426,0.888335,4.30469,9.34666,0.203488,0.0897945,-0.203259,0
2024-11-29 18:14:38.428,0.912264,4.32144,9.44238,0.203488,0.0769668,-0.218531,0
2024-11-29 18:14:38.431,0.936192,4.35733,9.52134,0.203488,0.0635281,-0.235023,0
2024-11-29 18:14:38.433,0.940978,4.37408,9.60987,0.206543,0.051922,-0.253349,0
2024-11-29 18:14:38.435,0.938585,4.36451,9.7008,0.210819,0.0397051,-0.270453,0
2024-11-29 18:14:38.439,0.926621,4.36451,9.78455,0.219371,0.00794101,-0.301606,0
2024-11-29 18:14:38.440,0.888335,4.38126,9.88296,0.219371,0.00794101,-0.301606,0
2024-11-29 18:14:38.442,0.845265,4.39562,9.98824,0.22609,-0.00916271,-0.315655,0
2024-11-29 18:14:38.445,0.804287,4.40758,10.0816,0.23342,-0.0268773,-0.328483,0
2024-11-29 18:14:38.448,0.754038,4.41954,10.1773,0.238918,-0.043981,-0.337646,0
2024-11-29 18:14:38.450,0.703789,4.42911,10.2778,0.249913,-0.0647498,-0.34803,0
2024-11-29 18:14:38.452,0.646361,4.44347,10.3759,0.26213,-0.0849078,-0.35475,0
2024-11-29 18:14:38.455,0.588933,4.46022,10.4743,0.286564,-0.12278,-0.366356,0
2024-11-29 18:14:38.458,0.538684,4.46261,10.5628,0.301224,-0.138051,-0.36941,0
2024-11-29 18:14:38.459,0.478864,4.45304,10.6514,0.301224,-0.138051,-0.36941,0
2024-11-29 18:14:38.461,0.445364,4.45065,10.7423,0.318328,-0.154544,-0.371853,0
2024-11-29 18:14:38.465,0.438186,4.45544,10.8069,0.331766,-0.167983,-0.374907,0
2024-11-29 18:14:38.467,0.419043,4.44586,10.85,0.349481,-0.182643,-0.374297,0
2024-11-29 18:14:38.468,0.397508,4.41954,10.8811,0.366585,-0.199136,-0.374297,0
2024-11-29 18:14:38.471,0.385544,4.40997,10.9193,0.378191,-0.213797,-0.375518,0
2024-11-29 18:14:38.474,0.385544,4.40519,10.9508,0.390408,-0.229679,-0.374907,0
2024-11-29 18:14:38.475,0.373579,4.37887,10.9603,0.401403,-0.242506,-0.376129,0
2024-11-29 18:14:38.479,0.354437,4.38365,10.9771,0.417285,-0.264497,-0.376129,0
2024-11-29 18:14:38.481,0.342473,4.40519,11.0034,0.425226,-0.271827,-0.374297,0
2024-11-29 18:14:38.484,0.337687,4.39801,11.0249,0.430724,-0.274881,-0.374907,0
2024-11-29 18:14:38.486,0.34008,4.40997,11.0513,0.431945,-0.276714,-0.373075,0
2024-11-29 18:14:38.488,0.34008,4.43629,11.0536,0.431945,-0.276714,-0.373075,0
2024-11-29 18:14:38.490,0.35683,4.43629,11.0465,0.436832,-0.274881,-0.371853,0
2024-11-29 18:14:38.492,0.368794,4.43869,11.0441,0.438054,-0.269384,-0.372464,0
2024-11-29 18:14:38.494,0.344866,4.44347,11.0465,0.439276,-0.260832,-0.373686,0
2024-11-29 18:14:38.498,0.335294,4.45544,11.056,0.441108,-0.251058,-0.374297,0
2024-11-29 18:14:38.500,0.335294,4.46022,11.0608,0.438054,-0.243728,-0.374297,0
2024-11-29 18:14:38.501,0.34008,4.45065,11.0656,0.437443,-0.232733,-0.377962,0
2024-11-29 18:14:38.505,0.347258,4.44826,11.068,0.430113,-0.211353,-0.381016,0
2024-11-29 18:14:38.507,0.335294,4.44108,11.0536,0.427059,-0.199136,-0.385903,0
2024-11-29 18:14:38.509,0.316152,4.42672,11.0369,0.427059,-0.199136,-0.385903,0
2024-11-29 18:14:38.512,0.30658,4.41715,11.0273,0.417285,-0.189363,-0.389568,0
2024-11-29 18:14:38.514,0.275175,4.40758,11.0297,0.411177,-0.175924,-0.393844,0
2024-11-29 18:14:38.516,0.232104,4.39083,11.0465,0.403236,-0.167372,-0.397509,0
2024-11-29 18:14:38.519,0.179462,4.3669,11.0656,0.387354,-0.148436,-0.400563,0
2024-11-29 18:14:38.521,0.131605,4.35494,11.0848,0.37758,-0.138662,-0.404839,0
2024-11-29 18:14:38.524,0.0909273,4.34776,11.1015,0.37758,-0.138662,-0.404839,0
2024-11-29 18:14:38.525,0.0382852,4.3023,11.123,0.37025,-0.127667,-0.404228,0
2024-11-29 18:14:38.528,-0.00717847,4.26162,11.1613,0.357422,-0.117894,-0.402396,0
2024-11-29 18:14:38.531,-0.0502493,4.24247,11.1924,0.347648,-0.111785,-0.399341,0
2024-11-29 18:14:38.533,-0.100499,4.21615,11.2235,0.347648,-0.111785,-0.399341,0
2024-11-29 18:14:38.534,-0.157926,4.19432,11.2522,0.342151,-0.107509,-0.396287,0
2024-11-29 18:14:38.538,-0.215354,4.15843,11.2786,0.339707,-0.103233,-0.392011,0
2024-11-29 18:14:38.539,-0.258425,4.12493,11.3097,0.335431,-0.0989573,-0.385903,0
2024-11-29 18:14:38.541,-0.304188,4.10339,11.3408,0.330545,-0.0934596,-0.380405,0
2024-11-29 18:14:38.545,-0.359223,4.07946,11.3743,0.329934,-0.0891837,-0.374297,0
2024-11-29 18:14:38.546,-0.3999,4.06032,11.4078,0.328712,-0.0861295,-0.366966,0
2024-11-29 18:14:38.548,-0.442971,4.04836,11.4341,0.328101,-0.0824644,-0.358415,0
2024-11-29 18:14:38.551,-0.486042,4.02921,11.4556,0.328712,-0.0769668,-0.349863,0
2024-11-29 18:14:38.556,-0.584148,3.98854,11.4796,0.338486,-0.0714691,-0.328483,0
2024-11-29 18:14:38.557,-0.584148,3.98854,11.4796,0.342151,-0.0708583,-0.316266,0
2024-11-29 18:14:38.559,-0.632004,3.96222,11.4867,0.34887,-0.0733017,-0.305271,0
2024-11-29 18:14:38.560,-0.658325,3.93589,11.511,0.34887,-0.0733017,-0.305271,0
2024-11-29 18:14:38.564,-0.667897,3.90718,11.5301,0.353757,-0.0769668,-0.292443,0
2024-11-29 18:14:38.566,-0.672682,3.87847,11.5421,0.361698,-0.0830752,-0.279004,0
2024-11-29 18:14:38.568,-0.675075,3.85932,11.5493,0.368417,-0.0934596,-0.269231,0
2024-11-29 18:14:38.571,-0.665504,3.82822,11.5421,0.379413,-0.103233,-0.257014,0
2024-11-29 18:14:38.573,-0.660718,3.81147,11.5253,0.388575,-0.111785,-0.245408,0
2024-11-29 18:14:38.574,-0.663111,3.81147,11.5182,0.396516,-0.12278,-0.235023,0
2024-11-29 18:14:38.578,-0.684646,3.81147,11.5182,0.415452,-0.139884,-0.213644,0
2024-11-29 18:14:38.580,-0.727717,3.82104,11.5062,0.415452,-0.139884,-0.213644,0
2024-11-29 18:14:38.581,-0.775574,3.84018,11.47,0.425837,-0.145992,-0.201427,0
2024-11-29 18:14:38.585,-0.84018,3.85693,11.4365,0.438054,-0.149047,-0.187377,0
2024-11-29 18:14:38.586,-0.895514,3.89282,11.4054,0.448438,-0.150268,-0.171495,0
2024-11-29 18:14:38.590,-0.931406,3.93111,11.3575,0.455768,-0.155766,-0.156835,0
2024-11-29 18:14:38.591,-0.957727,3.97418,11.2857,0.467375,-0.156377,-0.139731,0
2024-11-29 18:14:38.594,-0.984048,3.99811,11.2068,0.472872,-0.158209,-0.123849,0
2024-11-29 18:14:38.596,-1.00798,4.00768,11.1302,0.475316,-0.159431,-0.106135,0
2024-11-29 18:14:38.598,-1.02473,4.01486,11.0201,0.477759,-0.161264,-0.0896418,0
2024-11-29 18:14:38.601,-1.00558,4.01964,10.8787,0.474094,-0.172259,-0.0554344,0
2024-11-29 18:14:38.604,-0.945763,4.01007,10.7495,0.474094,-0.172259,-0.0554344,0
2024-11-29 18:14:38.605,-0.885943,3.95743,10.6298,0.463709,-0.182643,-0.0426066,0
2024-11-29 18:14:38.608,-0.804287,3.90479,10.4767,0.453936,-0.193028,-0.0267246,0
2024-11-29 18:14:38.610,-0.684646,3.84736,10.2921,0.436221,-0.204634,-0.0206161,0
2024-11-29 18:14:38.613,-0.567398,3.78754,10.0935,0.387964,-0.24495,-0.0151185,0
2024-11-29 18:14:38.615,-0.447757,3.7325,9.89731,0.387964,-0.24495,-0.0151185,0
2024-11-29 18:14:38.618,-0.32333,3.67747,9.72952,0.349481,-0.27366,-0.0151185,0
2024-11-29 18:14:38.620,-0.20339,3.60539,9.58116,0.26213,-0.34574,-0.0303897,0
2024-11-29 18:14:38.622,-0.0526421,3.52403,9.46391,0.26213,-0.34574,-0.0303897,0
2024-11-29 18:14:38.625,0.112463,3.44985,9.37059,0.208375,-0.392164,-0.0426066,0
2024-11-29 18:14:38.627,0.267996,3.37807,9.29163,0.0843733,-0.498451,-0.0762032,0
2024-11-29 18:14:38.630,0.428614,3.31825,9.24347,0.0147367,-0.555871,-0.0957503,0
2024-11-29 18:14:38.632,0.596112,3.23928,9.22433,0.0147367,-0.555871,-0.0957503,0
2024-11-29 18:14:38.633,0.761217,3.15553,9.26292,-0.0567324,-0.61268,-0.121406,0
2024-11-29 18:14:38.636,0.917049,3.07149,9.36581,-0.130034,-0.670099,-0.145229,0
2024-11-29 18:14:38.638,1.08933,2.97817,9.5333,-0.204557,-0.725076,-0.172106,0
2024-11-29 18:14:38.640,1.26162,2.88963,9.76302,-0.277248,-0.775165,-0.200205,0
2024-11-29 18:14:38.644,1.41984,2.80349,10.0528,-0.345663,-0.818535,-0.229526,0
2024-11-29 18:14:38.646,1.58255,2.7341,10.3881,-0.470276,-0.888172,-0.29,0
2024-11-29 18:14:38.648,1.73809,2.64796,10.7399,-0.470276,-0.888172,-0.29,0
2024-11-29 18:14:38.650,1.87926,2.54985,11.0919,-0.525252,-0.90833,-0.324207,0
2024-11-29 18:14:38.653,1.9992,2.45384,11.415,-0.615047,-0.920547,-0.401174,0
2024-11-29 18:14:38.654,2.11167,2.33898,11.7407,-0.615047,-0.920547,-0.401174,0
2024-11-29 18:14:38.657,2.17866,2.22174,12.1095,-0.646887,-0.912606,-0.440268,0
2024-11-29 18:14:38.660,2.18584,2.12602,12.4852,-0.674375,-0.898556,-0.482417,0
2024-11-29 18:14:38.663,2.1667,2.02313,12.842,-0.688425,-0.874733,-0.523954,0
2024-11-29 18:14:38.665,2.0997,1.91755,13.1483,-0.701253,-0.814259,-0.601532,0
2024-11-29 18:14:38.667,1.99202,1.81466,13.4094,-0.701253,-0.814259,-0.601532,0
2024-11-29 18:14:38.670,1.82423,1.71177,13.6487,-0.696366,-0.773333,-0.635739,0
2024-11-29 18:14:38.672,1.62084,1.61366,13.8811,-0.667656,-0.67071,-0.68644,0
2024-11-29 18:14:38.673,1.44616,1.50359,14.0916,-0.667656,-0.67071,-0.68644,0
2024-11-29 18:14:38.676,1.28076,1.36211,14.2926,-0.645055,-0.611458,-0.707208,0
2024-11-29 18:14:38.679,1.10608,1.19462,14.4676,-0.615047,-0.545487,-0.719425,0
2024-11-29 18:14:38.680,0.945763,1.04387,14.5849,-0.579007,-0.469131,-0.728588,0
2024-11-29 18:14:38.683,0.794716,0.897907,14.6423,-0.537469,-0.386055,-0.734697,0
2024-11-29 18:14:38.686,0.612862,0.749253,14.6542,-0.492877,-0.293818,-0.732864,1
2024-11-29 18:14:38.688,0.395115,0.608076,14.6184,-0.443399,-0.193639,-0.730421,0
2024-11-29 18:14:38.690,0.179462,0.471685,14.5131,-0.392088,-0.0861295,-0.720036,0
2024-11-29 18:14:38.693,-0.0478565,0.328116,14.3623,-0.288854,0.125224,-0.680331,0
2024-11-29 18:14:38.696,-0.287438,0.18664,14.1778,-0.239376,0.226013,-0.652843,0
2024-11-29 18:14:38.698,-0.517149,0.0622134,13.9696,-0.191119,0.31703,-0.619246,0
2024-11-29 18:14:38.700,-0.73011,-0.0454636,13.7276,-0.14836,0.40377,-0.57893,0
2024-11-29 18:14:38.705,-0.957727,-0.177069,13.1868,-0.0677277,0.552817,-0.48486,0
2024-11-29 18:14:38.705,-1.19462,-0.177069,13.1868,-0.0677277,0.552817,-0.48486,0
2024-11-29 18:14:38.706,-1.41506,-0.208176,12.9305,-0.0677277,0.552817,-0.48486,0
2024-11-29 18:14:38.709,-1.61605,-0.224925,12.6649,-0.0329094,0.618177,-0.431716,0
2024-11-29 18:14:38.712,-1.7668,-0.222533,12.3727,0.000687203,0.674986,-0.374907,0
2024-11-29 18:14:38.714,-1.85533,-0.224925,12.0903,0.0306187,0.72813,-0.318099,0
2024-11-29 18:14:38.717,-1.92233,-0.248854,11.8077,0.0593285,0.774554,-0.260679,0
2024-11-29 18:14:38.719,-1.98485,-0.260818,11.5373,0.081319,0.809983,-0.201427,0
2024-11-29 18:14:38.720,-2.01356,-0.263211,11.281,0.101477,0.837472,-0.144618,0
2024-11-29 18:14:38.723,-2.01117,-0.277567,11.0297,0.116748,0.853964,-0.0884201,0
2024-11-29 18:14:38.726,-1.9681,-0.287438,10.7949,0.129576,0.85763,-0.0364981,0
2024-11-29 18:14:38.728,-1.91516,-0.282652,10.5796,0.135074,0.850299,0.0135914,0
2024-11-29 18:14:38.731,-1.87448,-0.246461,10.3711,0.13935,0.803875,0.103997,0
2024-11-29 18:14:38.733,-1.81226,-0.20339,10.194,0.138739,0.769057,0.143702,0
2024-11-29 18:14:38.735,-1.73809,-0.155533,10.072,0.138739,0.769057,0.143702,0
2024-11-29 18:14:38.737,-1.64955,-0.0789631,9.97867,0.137517,0.725687,0.184018,0
2024-11-29 18:14:38.740,-1.55145,-0.00239282,9.90928,0.134463,0.675597,0.217003,0
2024-11-29 18:14:38.742,-1.44377,0.0693919,9.87578,0.13263,0.621843,0.248157,0
2024-11-29 18:14:38.744,-1.31904,0.141177,9.86142,0.133852,0.564423,0.277477,0
2024-11-29 18:14:38.747,-1.17308,0.208176,9.89013,0.132019,0.503338,0.303133,0
2024-11-29 18:14:38.749,-1.01994,0.267996,9.94995,0.138128,0.437367,0.321458,0
2024-11-29 18:14:38.752,-0.842872,0.32333,10.0026,0.147901,0.30298,0.354444,0
2024-11-29 18:14:38.753,-0.622433,0.352044,10.0816,0.147901,0.30298,0.354444,0
2024-11-29 18:14:38.757,-0.395115,0.364008,10.1773,0.158286,0.23823,0.359331,0
2024-11-29 18:14:38.758,-0.150748,0.371187,10.2682,0.171114,0.174702,0.361774,0
2024-11-29 18:14:38.761,0.0861416,0.373579,10.3567,0.185774,0.117283,0.359331,0
2024-11-29 18:14:38.764,0.282652,0.395115,10.4121,0.206543,0.0665824,0.352001,0
2024-11-29 18:14:38.766,0.483649,0.41665,10.4551,0.224868,0.0207688,0.340395,0
2024-11-29 18:14:38.770,0.821037,0.428614,10.5221,0.268849,-0.0561979,0.314739,0
2024-11-29 18:14:38.770,0.821037,0.428614,10.5221,0.268849,-0.0561979,0.314739,0
2024-11-29 18:14:38.773,0.952942,0.435793,10.5532,0.309165,-0.125224,0.279921,0
2024-11-29 18:14:38.776,1.07976,0.428614,10.5389,0.309165,-0.125224,0.279921,0
2024-11-29 18:14:38.777,1.19462,0.41665,10.5126,0.329934,-0.153323,0.262817,0
2024-11-29 18:14:38.780,1.28554,0.411865,10.4862,0.346427,-0.177757,0.246935,0
2024-11-29 18:14:38.783,1.36929,0.404686,10.4336,0.375137,-0.211353,0.210895,0
2024-11-29 18:14:38.785,1.44855,0.3999,10.3663,0.386132,-0.220516,0.193791,0
2024-11-29 18:14:38.787,1.5323,0.3999,10.3208,0.386132,-0.220516,0.193791,0
2024-11-29 18:14:38.790,1.60648,0.395115,10.2945,0.410566,-0.224792,0.157751,0
2024-11-29 18:14:38.792,1.64477,0.404686,10.2132,0.42095,-0.221738,0.137593,0
2024-11-29 18:14:38.794,1.66391,0.440578,10.1246,0.42095,-0.221738,0.137593,0
2024-11-29 18:14:38.797,1.69023,0.481256,10.0672,0.42828,-0.21624,0.118657,0
2024-11-29 18:14:38.798,1.6998,0.517149,9.99303,0.438054,-0.205245,0.0966666,0
2024-11-29 18:14:38.802,1.68784,0.555434,9.89492,0.447827,-0.176535,0.0575724,0
2024-11-29 18:14:38.803,1.66869,0.600898,9.76541,0.447827,-0.176535,0.0575724,0
2024-11-29 18:14:38.806,1.65434,0.632004,9.6362,0.447217,-0.159431,0.0374144,0
2024-11-29 18:14:38.809,1.64477,0.655932,9.49502,0.445995,-0.140495,0.0142022,0
2024-11-29 18:14:38.810,1.62802,0.672682,9.32752,0.439886,-0.120337,-0.00656661,0
2024-11-29 18:14:38.813,1.60887,0.682254,9.15973,0.433778,-0.0971247,-0.0279463,0
2024-11-29 18:14:38.815,1.58255,0.687039,9.0018,0.423394,-0.07208,-0.0499368,0
2024-11-29 18:14:38.817,1.54905,0.703789,8.84866,0.409344,-0.0482569,-0.0700947,0
2024-11-29 18:14:38.820,1.49163,0.73011,8.7003,0.391629,-0.028099,-0.0884201,0
2024-11-29 18:14:38.823,1.42702,0.744467,8.57318,0.3562,0.00977356,-0.126293,0
2024-11-29 18:14:38.825,1.3669,0.754038,8.45354,0.3562,0.00977356,-0.126293,0
2024-11-29 18:14:38.826,1.29512,0.768395,8.3363,0.33421,0.0287098,-0.140953,0
2024-11-29 18:14:38.830,1.22094,0.787538,8.23819,0.287175,0.0586413,-0.169052,0
2024-11-29 18:14:38.832,1.15633,0.801895,8.15683,0.263352,0.0726908,-0.18188,0
2024-11-29 18:14:38.835,1.1013,0.809073,8.08475,0.263352,0.0726908,-0.18188,0
2024-11-29 18:14:38.837,1.05344,0.825823,8.0345,0.241361,0.0867403,-0.192875,0
2024-11-29 18:14:38.838,1.00319,0.85005,7.99861,0.219981,0.101401,-0.202038,0
2024-11-29 18:14:38.842,0.962513,0.864407,7.96511,0.196158,0.113618,-0.21059,0
2024-11-29 18:14:38.844,0.912264,0.881157,7.95793,0.15401,0.149658,-0.225861,0
2024-11-29 18:14:38.845,0.8668,0.895514,7.94836,0.15401,0.149658,-0.225861,0
2024-11-29 18:14:38.849,0.835394,0.907478,7.93161,0.135684,0.169205,-0.23258,0
2024-11-29 18:14:38.850,0.789931,0.929013,7.934,0.119802,0.188141,-0.237467,0
2024-11-29 18:14:38.852,0.734896,0.962513,7.93639,0.102088,0.210742,-0.241743,0
2024-11-29 18:14:38.855,0.694218,0.996012,7.94357,0.0862058,0.230289,-0.245408,0
2024-11-29 18:14:38.857,0.660718,1.01755,7.94597,0.0758214,0.252891,-0.246019,0
2024-11-29 18:14:38.859,0.605683,1.03908,7.93879,0.0648262,0.274881,-0.247851,0
2024-11-29 18:14:38.863,0.553041,1.06301,7.92922,0.0568851,0.298093,-0.24663,0
2024-11-29 18:14:38.865,0.498006,1.0989,7.92204,0.0428357,0.343907,-0.241132,0
2024-11-29 18:14:38.866,0.442971,1.13958,7.90529,0.0428357,0.343907,-0.241132,0
2024-11-29 18:14:38.869,0.397508,1.16351,7.89093,0.0403923,0.365898,-0.237467,0
2024-11-29 18:14:38.872,0.332901,1.2018,7.85743,0.0379489,0.409268,-0.226472,0
2024-11-29 18:14:38.875,0.27996,1.2329,7.81197,0.0379489,0.409268,-0.226472,0
2024-11-29 18:14:38.877,0.239282,1.26162,7.77608,0.0348946,0.431258,-0.220363,0
2024-11-29 18:14:38.878,0.191426,1.29272,7.71865,0.037338,0.45386,-0.21059,0
2024-11-29 18:14:38.881,0.150748,1.31186,7.64447,0.0385597,0.471574,-0.200816,0
2024-11-29 18:14:38.883,0.129212,1.34776,7.57478,0.041614,0.488678,-0.192875,0
2024-11-29 18:14:38.886,0.107677,1.38126,7.51496,0.0422248,0.501506,-0.183712,0
2024-11-29 18:14:38.890,0.0622134,1.43898,7.39771,0.0465007,0.51922,-0.165998,0
2024-11-29 18:14:38.891,0.0622134,1.43898,7.39771,0.0465007,0.51922,-0.165998,0
2024-11-29 18:14:38.893,0.0478565,1.46052,7.32114,0.0489441,0.522274,-0.156835,0
2024-11-29 18:14:38.895,0.0239282,1.48923,7.23261,0.0513875,0.522274,-0.145229,0
2024-11-29 18:14:38.898,0.0215354,1.50359,7.14407,0.049555,0.517388,-0.13851,0
2024-11-29 18:14:38.899,0.0334995,1.51555,7.04836,0.0519984,0.512501,-0.129347,0
2024-11-29 18:14:38.902,0.0526421,1.52752,6.95713,0.0526092,0.507003,-0.118963,0
2024-11-29 18:14:38.905,0.0598206,1.54427,6.87099,0.0471116,0.482569,-0.101248,0
2024-11-29 18:14:38.908,0.0717847,1.57777,6.78724,0.0471116,0.482569,-0.101248,0
2024-11-29 18:14:38.910,0.0933201,1.60648,6.70828,0.0385597,0.448362,-0.0908635,0
2024-11-29 18:14:38.912,0.124427,1.64716,6.63889,0.0385597,0.448362,-0.0908635,0
2024-11-29 18:14:38.915,0.138784,1.68784,6.57667,0.0348946,0.425761,-0.0859767,0
2024-11-29 18:14:38.917,0.141177,1.71655,6.52164,0.029397,0.40377,-0.0786466,0
2024-11-29 18:14:38.918,0.150748,1.75244,6.48096,0.0226777,0.378725,-0.0762032,0
2024-11-29 18:14:38.921,0.162712,1.77159,6.44955,0.0177909,0.350626,-0.0725381,0
2024-11-29 18:14:38.924,0.177069,1.79791,6.43041,0.00923906,0.322527,-0.0707056,0
2024-11-29 18:14:38.926,0.193819,1.84337,6.40409,0.0019089,0.291985,-0.0700947,0
2024-11-29 18:14:38.929,0.210568,1.87926,6.37777,-0.0133623,0.227846,-0.0664296,0
2024-11-29 18:14:38.931,0.236889,1.91276,6.3682,-0.0133623,0.227846,-0.0664296,0
2024-11-29 18:14:38.932,0.260818,1.93908,6.35145,-0.0200816,0.193028,-0.0682622,0
2024-11-29 18:14:38.936,0.272782,1.96301,6.34427,-0.0292443,0.156988,-0.0707056,0
2024-11-29 18:14:38.937,0.287438,1.98006,6.35623,-0.0377962,0.12278,-0.0713164,0
2024-11-29 18:14:38.941,0.292223,1.97049,6.37538,-0.0487914,0.0818535,-0.0725381,0
2024-11-29 18:14:38.943,0.294616,1.98006,6.4017,-0.0573433,0.0458135,-0.0755923,0
2024-11-29 18:14:38.944,0.318545,2.01835,6.45195,-0.0671168,0.00916271,-0.0798683,0
2024-11-29 18:14:38.948,0.335294,2.04945,6.50967,-0.0775012,-0.0293207,-0.0847551,0
2024-11-29 18:14:38.949,0.325723,2.07577,6.55514,-0.0872748,-0.064139,-0.0865876,0
2024-11-29 18:14:38.952,0.313759,2.10927,6.61496,-0.104989,-0.127667,-0.0902527,0
2024-11-29 18:14:38.954,0.311366,2.12602,6.67478,-0.104989,-0.127667,-0.0902527,0
2024-11-29 18:14:38.956,0.304188,2.14277,6.76092,-0.111709,-0.15882,-0.0896418,0
2024-11-29 18:14:38.959,0.289831,2.16431,6.85903,-0.116595,-0.188752,-0.0926961,0
2024-11-29 18:14:38.961,0.275175,2.15952,6.94277,-0.124536,-0.214407,-0.0945286,0
2024-11-29 18:14:38.963,0.277567,2.14756,7.01486,-0.130034,-0.240674,-0.0920852,0
2024-11-29 18:14:38.965,0.275175,2.13559,7.09382,-0.135532,-0.261443,-0.0920852,0
2024-11-29 18:14:38.969,0.258425,2.11645,7.17757,-0.14164,-0.299315,-0.0878093,0
2024-11-29 18:14:38.971,0.239282,2.10927,7.24457,-0.147138,-0.313975,-0.0829225,0
2024-11-29 18:14:38.973,0.22014,2.09252,7.30918,-0.147138,-0.313975,-0.0829225,0
2024-11-29 18:14:38.976,0.200997,2.08295,7.35464,-0.152635,-0.324971,-0.0786466,0
2024-11-29 18:14:38.977,0.191426,2.07099,7.40489,-0.158744,-0.334133,-0.0694839,0
2024-11-29 18:14:38.980,0.177069,2.05424,7.45992,-0.166685,-0.340853,-0.0603212,0
2024-11-29 18:14:38.983,0.157926,2.05902,7.52214,-0.170961,-0.348183,-0.0474934,0
2024-11-29 18:14:38.985,0.148355,2.04706,7.6014,-0.186843,-0.354291,-0.0230595,0
2024-11-29 18:14:38.987,0.148355,2.02792,7.69711,-0.186843,-0.354291,-0.0230595,0
2024-11-29 18:14:38.990,0.16989,2.0327,7.78565,-0.192951,-0.353681,-0.00962084,0
2024-11-29 18:14:38.991,0.20339,2.05185,7.85982,-0.197227,-0.352459,0.00687203,0
2024-11-29 18:14:38.994,0.224925,2.07338,7.95075,-0.198449,-0.344518,0.0221432,0
2024-11-29 18:14:38.997,0.239282,2.08774,8.05125,-0.200282,-0.320084,0.0526856,0
2024-11-29 18:14:38.998,0.263211,2.10927,8.14726,-0.200282,-0.320084,0.0526856,0
2024-11-29 18:14:39.001,0.277567,2.13799,8.25015,-0.198449,-0.302369,0.0667351,0
2024-11-29 18:14:39.004,0.292223,2.15952,8.36022,-0.191119,-0.263886,0.0972774,0
2024-11-29 18:14:39.006,0.320937,2.19063,8.45115,-0.191119,-0.263886,0.0972774,0
2024-11-29 18:14:39.008,0.34008,2.21695,8.51576,-0.18501,-0.241285,0.109494,0
2024-11-29 18:14:39.011,0.352044,2.23849,8.57797,-0.171572,-0.191195,0.133317,0
2024-11-29 18:14:39.013,0.364008,2.26002,8.62104,-0.171572,-0.191195,0.133317,0
2024-11-29 18:14:39.015,0.378365,2.27438,8.65215,-0.165463,-0.16615,0.146145,0
2024-11-29 18:14:39.018,0.385544,2.30548,8.68086,-0.15569,-0.138662,0.15714,0
2024-11-29 18:14:39.021,0.397508,2.34856,8.70509,-0.145916,-0.0867403,0.174244,0
2024-11-29 18:14:39.022,0.409472,2.38206,8.70987,-0.145916,-0.0867403,0.174244,0
2024-11-29 18:14:39.025,0.404686,2.41316,8.70509,-0.131867,-0.0427593,0.190737,0
2024-11-29 18:14:39.028,0.404686,2.45384,8.70748,-0.131867,-0.0427593,0.190737,0
2024-11-29 18:14:39.029,0.411865,2.4993,8.71227,-0.124536,-0.020158,0.196846,0
2024-11-29 18:14:39.031,0.419043,2.5331,8.70987,-0.120261,-0.00366508,0.204787,0
2024-11-29 18:14:39.034,0.440578,2.5666,8.67608,-0.117206,0.0128278,0.210284,0
2024-11-29 18:14:39.037,0.459721,2.61207,8.64736,-0.114763,0.0293207,0.212117,0
2024-11-29 18:14:39.038,0.464507,2.65274,8.64018,-0.11232,0.0427593,0.21456,0
2024-11-29 18:14:39.042,0.462114,2.69581,8.61625,-0.111098,0.0537546,0.220058,0
2024-11-29 18:14:39.044,0.4669,2.73649,8.6019,-0.109876,0.0690257,0.223112,0
2024-11-29 18:14:39.046,0.474078,2.77717,8.60429,-0.111098,0.0812427,0.224334,0
2024-11-29 18:14:39.048,0.462114,2.84178,8.59711,-0.108654,0.0940705,0.227388,0
2024-11-29 18:14:39.050,0.442971,2.9016,8.61147,-0.109265,0.106898,0.227388,0
2024-11-29 18:14:39.054,0.426222,2.95663,8.62104,-0.107433,0.122169,0.227999,0
2024-11-29 18:14:39.055,0.402293,3.02363,8.62583,-0.104379,0.136219,0.234107,0
2024-11-29 18:14:39.057,0.375972,3.08345,8.63779,-0.102546,0.149047,0.236551,0
2024-11-29 18:14:39.061,0.364008,3.12204,8.65215,-0.0921616,0.177146,0.238994,0
2024-11-29 18:14:39.063,0.354437,3.17228,8.6689,-0.086664,0.188141,0.240216,0
2024-11-29 18:14:39.065,0.325723,3.23211,8.67129,-0.086664,0.188141,0.240216,0
2024-11-29 18:14:39.067,0.30658,3.27996,8.67608,-0.0799446,0.199747,0.242048,0
2024-11-29 18:14:39.069,0.292223,3.30868,8.67847,-0.0732253,0.210742,0.240827,0
2024-11-29 18:14:39.072,0.272782,3.35175,8.65693,-0.0695602,0.221127,0.243881,0
2024-11-29 18:14:39.075,0.258425,3.40678,8.62583,-0.0640626,0.229679,0.245713,0
2024-11-29 18:14:39.077,0.244068,3.44267,8.59951,-0.0524565,0.244339,0.246324,0
2024-11-29 18:14:39.078,0.236889,3.47857,8.58276,-0.0524565,0.244339,0.246324,0
2024-11-29 18:14:39.081,0.239282,3.51924,8.5684,-0.050624,0.246171,0.244492,0
2024-11-29 18:14:39.083,0.236889,3.56231,8.54926,-0.0475697,0.246782,0.242048,0
2024-11-29 18:14:39.087,0.236889,3.59581,8.52054,-0.0420721,0.247393,0.241437,0
2024-11-29 18:14:39.089,0.236889,3.63649,8.51097,-0.0414613,0.244339,0.238383,0
2024-11-29 18:14:39.091,0.229711,3.67029,8.52293,-0.0359636,0.233344,0.23594,0
2024-11-29 18:14:39.094,0.217747,3.70858,8.53011,-0.0359636,0.233344,0.23594,0
2024-11-29 18:14:39.096,0.22014,3.74686,8.53729,-0.0341311,0.226013,0.232886,0
2024-11-29 18:14:39.101,0.232104,3.82582,8.61625,-0.0316877,0.211353,0.230442,0
2024-11-29 18:14:39.101,0.232104,3.82582,8.61625,-0.0316877,0.211353,0.230442,0
2024-11-29 18:14:39.103,0.224925,3.85215,8.66172,-0.0255792,0.19486,0.229831,0
2024-11-29 18:14:39.105,0.208176,3.89522,8.71466,-0.0255792,0.19486,0.229831,0
2024-11-29 18:14:39.108,0.191426,3.95504,8.75773,-0.0213033,0.185087,0.22922,0
2024-11-29 18:14:39.110,0.193819,4.01246,8.81037,-0.0096972,0.170426,0.22922,0
2024-11-29 18:14:39.112,0.210568,4.04118,8.86541,-0.0096972,0.170426,0.22922,0
2024-11-29 18:14:39.114,0.229711,4.06511,8.92762,-0.000534491,0.160653,0.22922,0
2024-11-29 18:14:39.117,0.241675,4.101,8.98505,0.00679568,0.148436,0.22922,0
2024-11-29 18:14:39.120,0.253639,4.1345,9.01137,0.021456,0.124613,0.224945,0
2024-11-29 18:14:39.122,0.289831,4.16561,9.03769,0.021456,0.124613,0.224945,0
2024-11-29 18:14:39.123,0.325723,4.19193,9.06162,0.029397,0.110563,0.223723,0
2024-11-29 18:14:39.126,0.349651,4.22094,9.08555,0.0355055,0.095903,0.218225,0
2024-11-29 18:14:39.128,0.385544,4.24965,9.10469,0.0428357,0.080021,0.213949,0
2024-11-29 18:14:39.130,0.407079,4.25205,9.11905,0.0477224,0.0604739,0.210895,0
2024-11-29 18:14:39.133,0.414257,4.27358,9.12862,0.0477224,0.0452027,0.205397,0
2024-11-29 18:14:39.135,0.428614,4.31665,9.16451,0.0489441,0.0268773,0.201732,0
2024-11-29 18:14:39.140,0.462114,4.38604,9.21715,0.0483333,-0.00916271,0.190126,0
2024-11-29 18:14:39.141,0.462114,4.38604,9.21715,0.0483333,-0.00916271,0.190126,0
2024-11-29 18:14:39.142,0.474078,4.40997,9.25065,0.0465007,-0.0232122,0.187683,0
2024-11-29 18:14:39.144,0.481256,4.43151,9.31316,0.0434465,-0.0348183,0.183407,0
2024-11-29 18:14:39.148,0.507577,4.4674,9.39691,0.0355055,-0.0549763,0.172412,0
2024-11-29 18:14:39.150,0.541077,4.49133,9.5022,0.0348946,-0.0610847,0.167525,0
2024-11-29 18:14:39.153,0.569791,4.53918,9.59313,0.033673,-0.0659715,0.162027,0
2024-11-29 18:14:39.155,0.574577,4.59183,9.68405,0.0312296,-0.0684149,0.155308,0
2024-11-29 18:14:39.157,0.565005,4.62772,9.81566,0.0312296,-0.0684149,0.155308,0
2024-11-29 18:14:39.160,0.56022,4.68036,9.94278,0.0355055,-0.0586413,0.146145,0
2024-11-29 18:14:39.161,0.550648,4.733,10.0385,0.0355055,-0.0586413,0.146145,0
2024-11-29 18:14:39.163,0.52672,4.77877,10.1342,0.0391706,-0.0537546,0.138815,0
2024-11-29 18:14:39.166,0.521934,4.82662,10.2347,0.0422248,-0.0445919,0.133317,0
2024-11-29 18:14:39.168,0.531506,4.86969,10.3232,0.0501658,-0.0348183,0.12782,0
2024-11-29 18:14:39.171,0.541077,4.89841,10.4025,0.0550526,-0.0250447,0.119879,0
2024-11-29 18:14:39.174,0.557827,4.9343,10.4719,0.0715455,-0.000610847,0.105218,0
2024-11-29 18:14:39.176,0.557827,4.95583,10.5389,0.0715455,-0.000610847,0.105218,0
2024-11-29 18:14:39.180,0.574577,4.99412,10.6466,0.0843733,0.023823,0.0905581,0
2024-11-29 18:14:39.181,0.553041,4.99412,10.6466,0.0843733,0.023823,0.0905581,0
2024-11-29 18:14:39.182,0.588933,5.00369,10.6777,0.0910926,0.0372617,0.0795629,0
2024-11-29 18:14:39.185,0.591326,5.0013,10.6872,0.0978119,0.0488678,0.0716218,0
2024-11-29 18:14:39.187,0.605683,5.00608,10.6944,0.101477,0.0580305,0.0612374,0
2024-11-29 18:14:39.189,0.598505,5.01566,10.6992,0.104531,0.0690257,0.0520747,0
2024-11-29 18:14:39.193,0.579362,5.0324,10.7112,0.106975,0.0787993,0.0423012,0
2024-11-29 18:14:39.194,0.565005,5.04437,10.7088,0.106364,0.0867403,0.0343602,0
2024-11-29 18:14:39.197,0.54347,5.05394,10.7207,0.105142,0.0965139,0.0264191,0
2024-11-29 18:14:39.199,0.529113,5.05394,10.7471,0.102699,0.103844,0.0209215,0
2024-11-29 18:14:39.201,0.519542,5.06112,10.7662,0.0978119,0.10812,0.0135914,0
2024-11-29 18:14:39.204,0.50997,5.07069,10.7973,0.0941468,0.113007,0.00870457,0
2024-11-29 18:14:39.207,0.500399,5.06351,10.8571,0.0874275,0.114228,0.0038178,0
2024-11-29 18:14:39.208,0.498006,5.07308,10.9385,0.0819299,0.113618,-0.00106898,0
2024-11-29 18:14:39.211,0.505185,5.07787,11.0201,0.077654,0.111785,-0.00167983,0
2024-11-29 18:14:39.214,0.521934,5.07069,11.0943,0.0752106,0.109953,-0.00534491,0
2024-11-29 18:14:39.216,0.538684,5.05394,11.1757,0.0727672,0.104455,-0.00595576,0
2024-11-29 18:14:39.218,0.565005,5.0324,11.2786,0.0691021,0.0965139,-0.0114534,0
2024-11-29 18:14:39.220,0.591326,5.01566,11.3958,0.0672696,0.0867403,-0.0132859,0
2024-11-29 18:14:39.222,0.60329,5.00848,11.5086,0.0660479,0.0775776,-0.0200052,0
2024-11-29 18:14:39.225,0.62004,4.99412,11.621,0.0672696,0.0659715,-0.0236703,0
2024-11-29 18:14:39.227,0.648754,4.97976,11.7311,0.0684913,0.0561979,-0.0279463,0
2024-11-29 18:14:39.230,0.684646,4.98216,11.8364,0.0697129,0.0470352,-0.0316113,0
2024-11-29 18:14:39.232,0.73011,4.97976,11.9536,0.077654,0.0390942,-0.0401632,0
2024-11-29 18:14:39.234,0.775574,4.97258,12.0589,0.0825407,0.0293207,-0.0481042,0
2024-11-29 18:14:39.237,0.821037,4.96301,12.1525,0.0953685,0.0134386,-0.0615429,0
2024-11-29 18:14:39.240,0.859622,4.94626,12.2483,0.0953685,0.0134386,-0.0615429,0
2024-11-29 18:14:39.242,0.88355,4.9343,12.3248,0.104531,0.00855186,-0.0719273,0
2024-11-29 18:14:39.244,0.895514,4.92473,12.4014,0.111861,0.00366508,-0.0798683,0
2024-11-29 18:14:39.247,0.902692,4.89601,12.4756,0.1253,0.00122169,-0.096972,0
2024-11-29 18:14:39.249,0.905085,4.8673,12.5426,0.1253,0.00122169,-0.096972,0
2024-11-29 18:14:39.250,0.895514,4.84577,12.6239,0.133241,0.00488678,-0.106135,0
2024-11-29 18:14:39.253,0.873978,4.82662,12.6817,0.143625,0.0122169,-0.113465,0
2024-11-29 18:14:39.256,0.845265,4.81466,12.7247,0.152788,0.0189363,-0.119573,0
2024-11-29 18:14:39.260,0.773181,4.77159,12.8324,0.174779,0.0482569,-0.130569,0
2024-11-29 18:14:39.261,0.773181,4.77159,12.8324,0.174779,0.0482569,-0.130569,0
2024-11-29 18:14:39.262,0.727717,4.74975,12.8827,0.183941,0.0684149,-0.132401,0
2024-11-29 18:14:39.265,0.679861,4.70429,12.9066,0.195547,0.087962,-0.133012,0
2024-11-29 18:14:39.268,0.639183,4.66122,12.9281,0.219981,0.14416,-0.130569,0
2024-11-29 18:14:39.270,0.591326,4.6349,12.9401,0.219981,0.14416,-0.130569,0
2024-11-29 18:14:39.273,0.541077,4.59183,12.9353,0.234031,0.175313,-0.128125,0
2024-11-29 18:14:39.275,0.500399,4.54158,12.9042,0.260297,0.254112,-0.118352,0
2024-11-29 18:14:39.277,0.462114,4.47936,12.8516,0.260297,0.254112,-0.118352,0
2024-11-29 18:14:39.279,0.431007,4.41715,12.7702,0.273125,0.296261,-0.108578,0
2024-11-29 18:14:39.281,0.392722,4.36212,12.6529,0.285953,0.342074,-0.100637,0
2024-11-29 18:14:39.283,0.32333,4.31905,12.5378,0.29817,0.387277,-0.089031,0
2024-11-29 18:14:39.286,0.232104,4.29751,12.4038,0.308554,0.434923,-0.0786466,0
2024-11-29 18:14:39.289,0.117248,4.28315,12.2363,0.315884,0.484402,-0.0682622,0
2024-11-29 18:14:39.290,0.00957129,4.2688,12.0541,0.325658,0.532659,-0.0566561,0
2024-11-29 18:14:39.293,-0.0837488,4.27597,11.8412,0.32749,0.576029,-0.0413849,0
2024-11-29 18:14:39.295,-0.184247,4.29272,11.6234,0.329323,0.617567,-0.0285571,0
2024-11-29 18:14:39.299,-0.289831,4.3023,11.4054,0.329323,0.652996,-0.0126751,0
2024-11-29 18:14:39.300,-0.409472,4.30708,11.1829,0.323215,0.682927,0.000763559,0
2024-11-29 18:14:39.303,-0.524327,4.3334,10.9795,0.3055,0.725076,0.0288625,0
2024-11-29 18:14:39.306,-0.612862,4.35015,10.7949,0.294505,0.734849,0.0447446,0
2024-11-29 18:14:39.308,-0.691825,4.33579,10.6131,0.294505,0.734849,0.0447446,0
2024-11-29 18:14:39.310,-0.766002,4.33101,10.4169,0.278012,0.74279,0.0600157,0
2024-11-29 18:14:39.312,-0.828216,4.30708,10.2203,0.257854,0.744012,0.0740652,0
2024-11-29 18:14:39.315,-0.869193,4.28076,10.0361,0.20471,0.727519,0.102164,0
2024-11-29 18:14:39.316,-0.890728,4.24965,9.89253,0.20471,0.727519,0.102164,0
2024-11-29 18:14:39.319,-0.905085,4.21615,9.78694,0.170503,0.70675,0.111938,0
2024-11-29 18:14:39.322,-0.9003,4.17518,9.69841,0.13996,0.676208,0.118657,0
2024-11-29 18:14:39.323,-0.873978,4.13211,9.64577,0.10392,0.634059,0.122322,0
2024-11-29 18:14:39.327,-0.828216,4.09621,9.6362,0.065437,0.580916,0.1211,0
2024-11-29 18:14:39.331,-0.720539,4.01964,9.7343,-0.00847551,0.444697,0.110105,0
2024-11-29 18:14:39.331,-0.720539,4.01964,9.7343,-0.00847551,0.444697,0.110105,0
2024-11-29 18:14:39.333,-0.629611,3.97897,9.85903,-0.0445155,0.361011,0.0984991,0
2024-11-29 18:14:39.335,-0.517149,3.94068,10.0457,-0.0793338,0.267551,0.0856713,0
2024-11-29 18:14:39.338,-0.397508,3.89282,10.2754,-0.111098,0.163096,0.0661242,0
2024-11-29 18:14:39.341,-0.277567,3.83061,10.5532,-0.139808,0.0500895,0.042912,0
2024-11-29 18:14:39.342,-0.165105,3.77079,10.8739,-0.164852,-0.067804,0.0166456,0
2024-11-29 18:14:39.346,-0.0526421,3.69661,11.2331,-0.19906,-0.313365,-0.0438283,0
2024-11-29 18:14:39.347,0.0861416,3.6006,11.6306,-0.19906,-0.313365,-0.0438283,0
2024-11-29 18:14:39.349,0.251246,3.48096,12.0613,-0.209444,-0.436756,-0.0737598,0
2024-11-29 18:14:39.352,0.419043,3.3326,12.5043,-0.210666,-0.554649,-0.107356,0
2024-11-29 18:14:39.355,0.579362,3.15553,12.909,-0.198449,-0.762948,-0.17455,0
2024-11-29 18:14:39.356,0.744467,2.97338,13.2299,-0.198449,-0.762948,-0.17455,0
2024-11-29 18:14:39.359,0.9003,2.81067,13.5434,-0.183789,-0.851521,-0.205703,0
2024-11-29 18:14:39.362,1.01994,2.6671,13.9313,-0.170961,-0.930931,-0.240521,0
2024-11-29 18:14:39.365,1.07258,2.52592,14.3456,-0.145916,-1.00362,-0.271063,0
2024-11-29 18:14:39.367,1.0678,2.38445,14.7619,-0.0799446,-1.12762,-0.32604,0
2024-11-29 18:14:39.369,1.07976,2.24566,15.1786,-0.0799446,-1.12762,-0.32604,0
2024-11-29 18:14:39.371,1.12044,2.11645,15.5641,-0.0329094,-1.17222,-0.349863,0
2024-11-29 18:14:39.374,1.13719,1.98963,15.8848,0.0196235,-1.20337,-0.367577,0
2024-11-29 18:14:39.376,1.11565,1.84576,16.165,0.077654,-1.21559,-0.38407,0
2024-11-29 18:14:39.378,1.08933,1.71177,16.421,0.145458,-1.21009,-0.396287,0
2024-11-29 18:14:39.381,1.05344,1.57059,16.6247,0.29817,-1.1429,-0.408504,1
2024-11-29 18:14:39.383,1.02233,1.41745,16.7659,0.29817,-1.1429,-0.408504,0
2024-11-29 18:14:39.385,1.00558,1.25204,16.8186,0.383078,-1.08181,-0.407282,0
2024-11-29 18:14:39.387,0.97687,1.09412,16.7563,0.469818,-1.00607,-0.403617,0
2024-11-29 18:14:39.389,0.9003,0.957727,16.6104,0.554726,-0.916271,-0.395065,0
2024-11-29 18:14:39.393,0.775574,0.811466,16.3971,0.722709,-0.691479,-0.360247,0
2024-11-29 18:14:39.394,0.639183,0.665504,16.098,0.722709,-0.691479,-0.360247,0
2024-11-29 18:14:39.397,0.512363,0.536291,15.7077,0.800897,-0.563201,-0.337035,0
2024-11-29 18:14:39.400,0.402293,0.421436,15.2599,0.939559,-0.291374,-0.272285,0
2024-11-29 18:14:39.401,0.287438,0.325723,14.7811,0.939559,-0.291374,-0.272285,0
2024-11-29 18:14:39.404,0.138784,0.260818,14.2376,0.996979,-0.150268,-0.233802,0
2024-11-29 18:14:39.407,-0.00957129,0.232104,13.6128,1.07822,0.123391,-0.148283,0
2024-11-29 18:14:39.408,-0.16989,0.260818,12.9616,1.07822,0.123391,-0.148283,0
2024-11-29 18:14:39.412,-0.34008,0.332901,12.3416,1.10082,0.249837,-0.100637,0
2024-11-29 18:14:39.413,-0.447757,0.397508,11.7359,1.11426,0.366508,-0.0554344,0
2024-11-29 18:14:39.415,-0.514756,0.469292,11.1135,1.11487,0.472185,-0.0151185,0
2024-11-29 18:14:39.418,-0.538684,0.541077,10.491,1.10693,0.566255,0.0239758,0
2024-11-29 18:14:39.420,-0.538684,0.586541,9.88774,1.08555,0.644444,0.0569615,0
2024-11-29 18:14:39.423,-0.514756,0.629611,9.27727,1.0544,0.708583,0.0893364,0
2024-11-29 18:14:39.426,-0.459721,0.670289,8.70509,0.954831,0.797156,0.129041,0
2024-11-29 18:14:39.428,-0.397508,0.694218,8.21426,0.954831,0.797156,0.129041,0
2024-11-29 18:14:39.430,-0.342473,0.739681,7.75215,0.890081,0.823422,0.140648,0
2024-11-29 18:14:39.433,-0.304188,0.809073,7.31875,0.742867,0.85763,0.144313,0
2024-11-29 18:14:39.435,-0.248854,0.895514,6.94038,0.742867,0.85763,0.144313,0
2024-11-29 18:14:39.437,-0.193819,0.991227,6.64846,0.661624,0.86496,0.141258,0
2024-11-29 18:14:39.439,-0.138784,1.10608,6.42802,0.576716,0.868625,0.13515,0
2024-11-29 18:14:39.442,-0.102891,1.25922,6.2342,0.403236,0.863127,0.108884,0
2024-11-29 18:14:39.445,-0.081356,1.38844,6.1002,0.317717,0.855797,0.0930015,0
2024-11-29 18:14:39.446,-0.0454636,1.50359,6.02124,0.317717,0.855797,0.0930015,0
2024-11-29 18:14:39.449,-0.0167498,1.61366,5.99013,0.234031,0.841748,0.0734544,0
2024-11-29 18:14:39.452,0.0167498,1.70459,6.01645,0.0819299,0.797156,0.0294734,0
2024-11-29 18:14:39.454,0.0693919,1.77637,6.08106,0.0110716,0.768446,0.0025961,0
2024-11-29 18:14:39.456,0.114855,1.8338,6.18156,0.0110716,0.768446,0.0025961,0
2024-11-29 18:14:39.458,0.165105,1.87926,6.32991,-0.0542891,0.733017,-0.0267246,0
2024-11-29 18:14:39.461,0.212961,1.89841,6.49532,-0.107433,0.696366,-0.060932,0
2024-11-29 18:14:39.462,0.239282,1.90798,6.67478,-0.156301,0.654217,-0.0963612,0
2024-11-29 18:14:39.466,0.246461,1.90798,6.85903,-0.229602,0.56992,-0.169663,0
2024-11-29 18:14:39.467,0.232104,1.91037,7.06032,-0.229602,0.56992,-0.169663,0
2024-11-29 18:14:39.471,0.200997,1.90798,7.25653,-0.253425,0.530215,-0.209368,0
2024-11-29 18:14:39.472,0.162712,1.89362,7.40967,-0.27114,0.487456,-0.249684,0
2024-11-29 18:14:39.474,0.102891,1.87448,7.56042,-0.279081,0.444086,-0.29,0
2024-11-29 18:14:39.477,0.00957129,1.85533,7.70429,-0.282746,0.401327,-0.327872,0
2024-11-29 18:14:39.479,-0.114855,1.83141,7.82154,-0.281524,0.354902,-0.364523,0
2024-11-29 18:14:39.481,-0.263211,1.80509,7.92204,-0.276027,0.306645,-0.396287,0
2024-11-29 18:14:39.485,-0.423829,1.77876,7.99382,-0.258312,0.198525,-0.445155,0
2024-11-29 18:14:39.487,-0.600898,1.73809,8.04646,-0.248538,0.143549,-0.46348,0
2024-11-29 18:14:39.488,-0.76361,1.67109,8.07996,-0.248538,0.143549,-0.46348,0
2024-11-29 18:14:39.492,-0.919442,1.6017,8.10868,-0.238154,0.0842969,-0.473865,0
2024-11-29 18:14:39.496,-1.2018,1.48205,8.14248,-0.213109,-0.0274881,-0.486082,0
2024-11-29 18:14:39.496,-1.2018,1.48205,8.14248,-0.213109,-0.0274881,-0.486082,0
2024-11-29 18:14:39.498,-1.34776,1.41506,8.14487,-0.202725,-0.0806318,-0.48486,0
2024-11-29 18:14:39.500,-1.47248,1.3334,8.14726,-0.19173,-0.128889,-0.478752,0
2024-11-29 18:14:39.502,-1.5682,1.28315,8.15205,-0.180734,-0.172259,-0.4702,0
2024-11-29 18:14:39.505,-1.64716,1.24965,8.16401,-0.174015,-0.211964,-0.459815,0
2024-11-29 18:14:39.510,-1.7668,1.1659,8.17358,-0.15569,-0.279157,-0.429884,0
2024-11-29 18:14:39.511,-1.7668,1.1659,8.17358,-0.147138,-0.305424,-0.412169,0
2024-11-29 18:14:39.512,-1.82423,1.15394,8.17119,-0.147138,-0.305424,-0.412169,0
2024-11-29 18:14:39.514,-1.88166,1.1348,8.16401,-0.143473,-0.327414,-0.394455,0
2024-11-29 18:14:39.517,-1.90558,1.12762,8.16401,-0.138586,-0.34635,-0.374297,0
2024-11-29 18:14:39.520,-1.91994,1.13719,8.18315,-0.133088,-0.374449,-0.333981,0
2024-11-29 18:14:39.521,-1.92473,1.15633,8.19512,-0.133088,-0.374449,-0.333981,0
2024-11-29 18:14:39.525,-1.93908,1.18744,8.19512,-0.133088,-0.383001,-0.314434,0
2024-11-29 18:14:39.529,-1.98485,1.25922,8.24776,-0.134921,-0.393386,-0.273507,0
2024-11-29 18:14:39.529,-2.02074,1.25922,8.24776,-0.134921,-0.393386,-0.273507,0
2024-11-29 18:14:39.532,-2.02552,1.29033,8.28844,-0.133088,-0.392164,-0.254571,0
2024-11-29 18:14:39.533,-2.01356,1.30708,8.31476,-0.132477,-0.385445,-0.234413,0
2024-11-29 18:14:39.535,-1.98724,1.31426,8.30758,-0.133699,-0.376893,-0.213644,0
2024-11-29 18:14:39.538,-1.95583,1.34058,8.3004,-0.135532,-0.363454,-0.19654,0
2024-11-29 18:14:39.540,-1.91994,1.37408,8.30519,-0.135532,-0.346961,-0.178826,0
2024-11-29 18:14:39.543,-1.89123,1.39322,8.29562,-0.139197,-0.330468,-0.162944,0
2024-11-29 18:14:39.546,-1.87448,1.4004,8.28126,-0.141029,-0.311532,-0.148283,0
2024-11-29 18:14:39.547,-1.85773,1.40279,8.2669,-0.144084,-0.291985,-0.132401,0
2024-11-29 18:14:39.551,-1.82662,1.40548,8.2334,-0.153246,-0.249837,-0.103691,0
2024-11-29 18:14:39.553,-1.79551,1.41984,8.18794,-0.153246,-0.249837,-0.103691,0
2024-11-29 18:14:39.555,-1.76919,1.42223,8.16401,-0.159966,-0.227235,-0.0920852,0
2024-11-29 18:14:39.558,-1.73091,1.42702,8.14965,-0.174015,-0.185087,-0.0639862,0
2024-11-29 18:14:39.559,-1.69741,1.4342,8.11586,-0.174015,-0.185087,-0.0639862,0
2024-11-29 18:14:39.561,-1.67109,1.44377,8.07996,-0.183789,-0.167372,-0.0517693,0
2024-11-29 18:14:39.564,-1.64477,1.46052,8.04168,-0.193562,-0.147825,-0.0389415,0
2024-11-29 18:14:39.566,-1.61127,1.47009,8.01536,-0.205168,-0.13011,-0.0261137,0
2024-11-29 18:14:39.569,-1.57298,1.49641,8.00339,-0.213109,-0.113007,-0.0120642,0
2024-11-29 18:14:39.572,-1.52752,1.5323,7.99621,-0.224105,-0.0965139,-0.00167983,0
2024-11-29 18:14:39.574,-1.4677,1.55862,8.00579,-0.24243,-0.0623064,0.0203107,0
2024-11-29 18:14:39.577,-1.41745,1.57059,8.01775,-0.250982,-0.0482569,0.0300842,0
2024-11-29 18:14:39.579,-1.36929,1.58973,8.01057,-0.250982,-0.0482569,0.0300842,0
2024-11-29 18:14:39.580,-1.31665,1.61127,8.00818,-0.260755,-0.0323749,0.0386361,0
2024-11-29 18:14:39.584,-1.27837,1.62084,8.01536,-0.271751,-0.00244339,0.0563507,0
2024-11-29 18:14:39.586,-1.2329,1.64237,8.00579,-0.275416,0.0103844,0.06307,0
2024-11-29 18:14:39.588,-1.17787,1.66391,8.00339,-0.275416,0.0103844,0.06307,0
2024-11-29 18:14:39.590,-1.13719,1.67348,8.01536,-0.280913,0.020158,0.0691785,0
2024-11-29 18:14:39.593,-1.12044,1.69262,8.0345,-0.285189,0.0317641,0.078952,0
2024-11-29 18:14:39.595,-1.11565,1.71655,8.0345,-0.285189,0.0317641,0.078952,0
2024-11-29 18:14:39.598,-1.10608,1.72373,8.05364,-0.286411,0.0329858,0.0856713,0
2024-11-29 18:14:39.600,-1.07976,1.75005,8.08475,-0.2858,0.0354291,0.0930015,0
2024-11-29 18:14:39.602,-1.06062,1.78594,8.07996,-0.2858,0.0354291,0.0930015,0
2024-11-29 18:14:39.604,-1.04148,1.79073,8.07757,-0.283357,0.0342074,0.0984991,0
2024-11-29 18:14:39.607,-0.991227,1.79551,8.07279,-0.280913,0.0317641,0.101553,0
2024-11-29 18:14:39.609,-0.948156,1.80509,8.04886,-0.276637,0.0293207,0.103997,0
2024-11-29 18:14:39.612,-0.914656,1.80987,8.01775,-0.274805,0.0250447,0.104608,0
2024-11-29 18:14:39.614,-0.893121,1.79551,8.00579,-0.271751,0.00977356,0.10644,0
2024-11-29 18:14:39.617,-0.890728,1.78355,7.99861,-0.269307,-0.000610847,0.107051,0
2024-11-29 18:14:39.619,-0.888335,1.79791,7.98904,-0.269307,-0.000610847,0.107051,0
2024-11-29 18:14:39.620,-0.864407,1.81944,7.99621,-0.266864,-0.0109953,0.108884,0
2024-11-29 18:14:39.623,-0.833001,1.83619,7.99861,-0.265642,-0.023823,0.110716,0
2024-11-29 18:14:39.626,-0.811466,1.83619,7.99861,-0.265031,-0.0525329,0.108884,0
2024-11-29 18:14:39.627,-0.799502,1.85533,8.01536,-0.265031,-0.0525329,0.108884,0
2024-11-29 18:14:39.631,-0.785145,1.88166,8.0345,-0.258923,-0.0818535,0.109494,0
2024-11-29 18:14:39.633,-0.787538,1.88883,8.04168,-0.258923,-0.0818535,0.109494,0
2024-11-29 18:14:39.635,-0.80668,1.89123,8.04886,-0.255869,-0.0971247,0.108273,0
2024-11-29 18:14:39.637,-0.811466,1.90558,8.05364,-0.25709,-0.113007,0.109494,0
2024-11-29 18:14:39.639,-0.813859,1.92233,8.06082,-0.252814,-0.128889,0.110716,0
2024-11-29 18:14:39.641,-0.818644,1.92473,8.07039,-0.252814,-0.128889,0.110716,0
2024-11-29 18:14:39.645,-0.821037,1.92473,8.07518,-0.252204,-0.169816,0.110716,0
2024-11-29 18:14:39.647,-0.816252,1.9343,8.10868,-0.252814,-0.215629,0.116214,0
2024-11-29 18:14:39.649,-0.813859,1.93191,8.13769,-0.252814,-0.215629,0.116214,0
2024-11-29 18:14:39.652,-0.816252,1.92951,8.14248,-0.258312,-0.263275,0.119268,0
2024-11-29 18:14:39.654,-0.816252,1.95105,8.16401,-0.258312,-0.263275,0.119268,0
2024-11-29 18:14:39.656,-0.811466,1.96301,8.18315,-0.260145,-0.282822,0.122933,0
2024-11-29 18:14:39.658,-0.792323,1.97049,8.21187,-0.26381,-0.307867,0.124155,0
2024-11-29 18:14:39.660,-0.770788,1.98006,8.25733,-0.267475,-0.326192,0.125376,0
2024-11-29 18:14:39.663,-0.754038,1.98006,8.30519,-0.268086,-0.346961,0.129041,0
2024-11-29 18:14:39.665,-0.737288,1.99202,8.36501,-0.271751,-0.365898,0.132707,0
2024-11-29 18:14:39.667,-0.708575,2.00399,8.42244,-0.271751,-0.365898,0.132707,0
2024-11-29 18:14:39.671,-0.675075,2.01117,8.48704,-0.279692,-0.415376,0.144924,0
2024-11-29 18:14:39.673,-0.641576,2.0351,8.56122,-0.27847,-0.430647,0.149199,0
2024-11-29 18:14:39.674,-0.593719,2.06381,8.64736,-0.27847,-0.430647,0.149199,0
2024-11-29 18:14:39.678,-0.536291,2.08535,8.7362,-0.277859,-0.444697,0.152865,0
2024-11-29 18:14:39.679,-0.490828,2.08535,8.82712,-0.275416,-0.456303,0.157751,0
2024-11-29 18:14:39.684,-0.397508,2.08056,9.0018,-0.274805,-0.466076,0.165081,0
2024-11-29 18:14:39.685,-0.397508,2.08056,9.0018,-0.265642,-0.472185,0.168136,0
2024-11-29 18:14:39.687,-0.352044,2.10688,9.07837,-0.259534,-0.472796,0.171801,0
2024-11-29 18:14:39.690,-0.301795,2.12124,9.16212,-0.259534,-0.472796,0.171801,0
2024-11-29 18:14:39.692,-0.27996,2.14038,9.24587,-0.254647,-0.46852,0.174855,0
2024-11-29 18:14:39.693,-0.263211,2.1667,9.33231,-0.244873,-0.461801,0.179742,0
2024-11-29 18:14:39.697,-0.239282,2.19063,9.40648,-0.225326,-0.443475,0.190126,0
2024-11-29 18:14:39.699,-0.217747,2.21695,9.49502,-0.225326,-0.443475,0.190126,0
2024-11-29 18:14:39.703,-0.208176,2.24566,9.59073,-0.197838,-0.41843,0.203565,0
2024-11-29 18:14:39.704,-0.184247,2.27438,9.67687,-0.180124,-0.403159,0.210284,0
2024-11-29 18:14:39.705,-0.133998,2.30788,9.75823,-0.180124,-0.403159,0.210284,0
2024-11-29 18:14:39.708,-0.100499,2.32702,9.82792,-0.160576,-0.384223,0.218225,0
2024-11-29 18:14:39.710,-0.0598206,2.34138,9.89492,-0.141029,-0.3604,0.226777,0
2024-11-29 18:14:39.712,-0.00478565,2.36052,9.94038,-0.119039,-0.335966,0.234718,0
2024-11-29 18:14:39.716,0.0502493,2.37966,9.9691,-0.0933833,-0.306034,0.24327,0
2024-11-29 18:14:39.718,0.0981057,2.38684,9.9691,-0.0726145,-0.270605,0.251822,0
2024-11-29 18:14:39.719,0.133998,2.38923,9.94038,-0.050624,-0.232122,0.260984,0
2024-11-29 18:14:39.722,0.177069,2.41077,9.90688,-0.0261901,-0.191806,0.270147,0
2024-11-29 18:14:39.725,0.232104,2.44427,9.85424,-0.00236703,-0.152101,0.276867,0
2024-11-29 18:14:39.726,0.289831,2.44666,9.77737,0.0141258,-0.110563,0.287862,0
2024-11-29 18:14:39.729,0.335294,2.43709,9.67448,0.0306187,-0.0684149,0.292138,0
2024-11-29 18:14:39.731,0.373579,2.45863,9.55484,0.0465007,-0.0262664,0.298857,0
2024-11-29 18:14:39.733,0.402293,2.49452,9.41366,0.0581068,0.0128278,0.304355,0
2024-11-29 18:14:39.736,0.423829,2.53549,9.2677,0.0629936,0.0476461,0.307409,0
2024-11-29 18:14:39.739,0.457328,2.57857,9.13101,0.0703238,0.109342,0.306187,0
2024-11-29 18:14:39.743,0.519542,2.66471,8.8343,0.0672696,0.139273,0.304965,0
2024-11-29 18:14:39.744,0.519542,2.66471,8.8343,0.0672696,0.139273,0.304965,0
2024-11-29 18:14:39.745,0.550648,2.72213,8.69761,0.0642153,0.163096,0.298857,0
2024-11-29 18:14:39.747,0.576969,2.78674,8.59472,0.0568851,0.183865,0.290916,0
2024-11-29 18:14:39.750,0.596112,2.85374,8.50858,0.049555,0.205245,0.281142,0
2024-11-29 18:14:39.753,0.610469,2.92552,8.42004,0.029397,0.237009,0.25793,0
2024-11-29 18:14:39.756,0.605683,2.99492,8.35783,0.029397,0.237009,0.25793,0
2024-11-29 18:14:39.757,0.596112,3.0332,8.3339,0.0165692,0.252891,0.246324,0
2024-11-29 18:14:39.760,0.591326,3.07627,8.32433,0.0019089,0.28099,0.223723,0
2024-11-29 18:14:39.763,0.557827,3.12682,8.30758,0.0019089,0.28099,0.223723,0
2024-11-29 18:14:39.764,0.524327,3.16271,8.27408,-0.00542127,0.297483,0.212117,0
2024-11-29 18:14:39.767,0.50997,3.22253,8.21665,-0.0127514,0.313975,0.201121,0
2024-11-29 18:14:39.770,0.498006,3.28235,8.17598,-0.0261901,0.346961,0.177298,0
2024-11-29 18:14:39.772,0.481256,3.3015,8.17358,-0.0261901,0.346961,0.177298,0
2024-11-29 18:14:39.773,0.445364,3.31825,8.17598,-0.0316877,0.359789,0.16386,0
2024-11-29 18:14:39.777,0.411865,3.34696,8.18315,-0.0365745,0.370173,0.152865,0
2024-11-29 18:14:39.779,0.378365,3.39242,8.18794,-0.0420721,0.374449,0.130263,0
2024-11-29 18:14:39.780,0.34008,3.43789,8.17837,-0.0420721,0.374449,0.130263,0
2024-11-29 18:14:39.783,0.311366,3.47139,8.17598,-0.0445155,0.373228,0.11377,0
2024-11-29 18:14:39.786,0.272782,3.51446,8.18555,-0.046348,0.366508,0.102775,0
2024-11-29 18:14:39.789,0.217747,3.55992,8.17837,-0.0451263,0.359178,0.0923906,0
2024-11-29 18:14:39.791,0.174676,3.61496,8.16401,-0.046348,0.351848,0.0813954,0
2024-11-29 18:14:39.792,0.136391,3.65354,8.15923,-0.046348,0.346961,0.0716218,0
2024-11-29 18:14:39.795,0.105284,3.68943,8.15205,-0.0487914,0.335966,0.0618483,0
2024-11-29 18:14:39.797,0.0693919,3.7349,8.16401,-0.0481806,0.327414,0.0514639,0
2024-11-29 18:14:39.799,0.0119641,3.79232,8.21426,-0.0457372,0.31703,0.0453554,0
2024-11-29 18:14:39.803,-0.0382852,3.85215,8.25972,-0.042683,0.304813,0.0386361,0
2024-11-29 18:14:39.805,-0.0933201,3.91675,8.3004,-0.0402396,0.293818,0.034971,0
2024-11-29 18:14:39.806,-0.129212,3.98614,8.36022,-0.0335202,0.28099,0.0313059,0
2024-11-29 18:14:39.810,-0.145962,4.04118,8.4344,-0.0280226,0.26694,0.0294734,0
2024-11-29 18:14:39.813,-0.179462,4.14168,8.56122,-0.0115297,0.23762,0.0282517,0
2024-11-29 18:14:39.813,-0.179462,4.14168,8.56122,-0.0115297,0.23762,0.0282517,0
2024-11-29 18:14:39.817,-0.191426,4.19432,8.61147,-0.00358873,0.22357,0.0245866,0
2024-11-29 18:14:39.819,-0.179462,4.24008,8.64497,0.0165692,0.196082,0.0215324,0
2024-11-29 18:14:39.822,-0.167498,4.29272,8.6689,0.0165692,0.196082,0.0215324,0
2024-11-29 18:14:39.824,-0.160319,4.34776,8.69043,0.0348946,0.170426,0.014813,0
2024-11-29 18:14:39.826,-0.150748,4.39322,8.71945,0.0410031,0.156988,0.0123697,0
2024-11-29 18:14:39.828,-0.167498,4.44826,8.75055,0.0410031,0.156988,0.0123697,0
2024-11-29 18:14:39.830,-0.172283,4.49133,8.78884,0.0458899,0.143549,0.00870457,0
2024-11-29 18:14:39.832,-0.16989,4.52961,8.8343,0.0532201,0.1295,0.00503949,0
2024-11-29 18:14:39.836,-0.174676,4.59183,8.87259,0.0648262,0.095903,-0.00473407,0
2024-11-29 18:14:39.838,-0.193819,4.66361,8.92523,0.0648262,0.095903,-0.00473407,0
2024-11-29 18:14:39.840,-0.198604,4.71625,8.99223,0.0709346,0.0794101,-0.00901,0
2024-11-29 18:14:39.842,-0.193819,4.74975,9.04487,0.073378,0.0616956,-0.0120642,0
2024-11-29 18:14:39.845,-0.20339,4.8003,9.09033,0.077654,0.043981,-0.0181727,0
2024-11-29 18:14:39.846,-0.227318,4.84816,9.14058,0.0837624,0.028099,-0.0230595,0
2024-11-29 18:14:39.850,-0.244068,4.87687,9.19562,0.0868167,0.0134386,-0.029168,0
2024-11-29 18:14:39.852,-0.239282,4.90559,9.26052,0.0874275,-0.000610847,-0.0334439,0
2024-11-29 18:14:39.854,-0.236889,4.9343,9.32752,0.0929251,-0.0146603,-0.0383307,0
2024-11-29 18:14:39.857,-0.236889,4.95344,9.38495,0.0953685,-0.0299315,-0.0468825,0
2024-11-29 18:14:39.859,-0.241675,4.9678,9.43759,0.0978119,-0.0549763,-0.0572669,0
2024-11-29 18:14:39.862,-0.246461,4.98933,9.50698,0.0990336,-0.0671932,-0.0639862,0
2024-11-29 18:14:39.864,-0.263211,5.00608,9.57398,0.100866,-0.0787993,-0.0707056,0
2024-11-29 18:14:39.866,-0.292223,5.00848,9.65055,0.100866,-0.0787993,-0.0707056,0
2024-11-29 18:14:39.869,-0.313759,5.00848,9.71994,0.10331,-0.0922379,-0.076814,0
2024-11-29 18:14:39.870,-0.335294,5.02523,9.77737,0.100866,-0.103844,-0.0798683,0
2024-11-29 18:14:39.873,-0.359223,5.03958,9.85185,0.101477,-0.112396,-0.0859767,0
2024-11-29 18:14:39.875,-0.373579,5.03958,9.94278,0.104531,-0.117894,-0.0896418,0
2024-11-29 18:14:39.877,-0.387936,5.05633,10.0289,0.104531,-0.124002,-0.0884201,0
2024-11-29 18:14:39.879,-0.390329,5.07787,10.1127,0.106975,-0.130721,-0.0884201,0
2024-11-29 18:14:39.882,-0.390329,5.08744,10.1988,0.108196,-0.133776,-0.0920852,0
2024-11-29 18:14:39.885,-0.395115,5.07548,10.2706,0.110029,-0.137441,-0.0908635,0
2024-11-29 18:14:39.887,-0.407079,5.05633,10.3424,0.110029,-0.137441,-0.0908635,0
2024-11-29 18:14:39.890,-0.414257,5.05394,10.3977,0.112472,-0.135608,-0.0908635,0
2024-11-29 18:14:39.892,-0.411865,5.03958,10.4456,0.111861,-0.133165,-0.0896418,0
2024-11-29 18:14:39.894,-0.428614,5.0324,10.4862,0.111861,-0.133165,-0.0896418,0
2024-11-29 18:14:39.897,-0.454935,5.02762,10.5413,0.11064,-0.134386,-0.0859767,0
2024-11-29 18:14:39.899,-0.476471,5.02044,10.5915,0.11064,-0.134386,-0.0859767,0
2024-11-29 18:14:39.901,-0.495613,5.02523,10.6298,0.107585,-0.134386,-0.0817008,0
2024-11-29 18:14:39.904,-0.52672,5.03001,10.6944,0.101477,-0.141106,-0.0743707,0
2024-11-29 18:14:39.906,-0.538684,5.0324,10.7423,0.0990336,-0.146603,-0.0700947,0
2024-11-29 18:14:39.909,-0.541077,5.0324,10.7853,0.093536,-0.150879,-0.0664296,0
2024-11-29 18:14:39.911,-0.567398,5.04437,10.85,0.093536,-0.150879,-0.0664296,0
2024-11-29 18:14:39.913,-0.579362,5.04198,10.9289,0.0886492,-0.155155,-0.060932,0
2024-11-29 18:14:39.916,-0.572184,5.0348,11.0154,0.0807082,-0.164929,-0.052991,0
2024-11-29 18:14:39.918,-0.574577,5.04198,11.0919,0.0758214,-0.167983,-0.0487151,0
2024-11-29 18:14:39.919,-0.576969,5.04915,11.1637,0.0758214,-0.167983,-0.0487151,0
2024-11-29 18:14:39.923,-0.567398,5.03719,11.2403,0.0727672,-0.170426,-0.04505,0
2024-11-29 18:14:39.924,-0.555434,5.0324,11.3216,0.0721563,-0.173481,-0.0407741,0
2024-11-29 18:14:39.928,-0.54347,5.0348,11.4197,0.0697129,-0.175313,-0.0389415,0
2024-11-29 18:14:39.930,-0.536291,5.03958,11.5035,0.065437,-0.175924,-0.0358873,0
2024-11-29 18:14:39.931,-0.52672,5.0324,11.5684,0.065437,-0.175924,-0.0358873,0
2024-11-29 18:14:39.934,-0.505185,5.03001,11.6474,0.0636045,-0.174091,-0.0346656,0
2024-11-29 18:14:39.937,-0.502792,5.03958,11.7383,0.0648262,-0.169205,-0.0316113,0
2024-11-29 18:14:39.938,-0.50997,5.03958,11.822,0.0648262,-0.169205,-0.0316113,0
2024-11-29 18:14:39.943,-0.517149,5.0659,11.9895,0.0703238,-0.162485,-0.0303897,0
2024-11-29 18:14:39.944,-0.517149,5.0659,11.9895,0.0703238,-0.162485,-0.0303897,0
2024-11-29 18:14:39.945,-0.517149,5.05633,12.076,0.0739889,-0.156988,-0.0297788,0
2024-11-29 18:14:39.948,-0.531506,5.04915,12.1478,0.0794865,-0.153934,-0.029168,0
2024-11-29 18:14:39.952,-0.550648,5.05155,12.3224,0.0947577,-0.146603,-0.0261137,0
2024-11-29 18:14:39.953,-0.550648,5.05155,12.3224,0.0947577,-0.146603,-0.0261137,0
2024-11-29 18:14:39.955,-0.581755,5.0348,12.3966,0.102088,-0.139884,-0.024892,0
2024-11-29 18:14:39.958,-0.60329,5.01566,12.454,0.114305,-0.1295,-0.0230595,0
2024-11-29 18:14:39.960,-0.617647,4.99651,12.4971,0.126522,-0.126445,-0.0206161,0
2024-11-29 18:14:39.964,-0.687039,4.94626,12.5641,0.153399,-0.113007,-0.0114534,0
2024-11-29 18:14:39.965,-0.655932,4.97258,12.5641,0.153399,-0.113007,-0.0114534,0
2024-11-29 18:14:39.967,-0.706182,4.92951,12.588,0.165616,-0.105677,-0.00534491,0
2024-11-29 18:14:39.970,-0.718146,4.89601,12.588,0.191272,-0.0897945,0.0117588,0
2024-11-29 18:14:39.972,-0.754038,4.85534,12.5833,0.191272,-0.0897945,0.0117588,0
2024-11-29 18:14:39.975,-0.785145,4.81705,12.5761,0.219981,-0.0739125,0.0355819,0
2024-11-29 18:14:39.977,-0.777966,4.78834,12.5545,0.23342,-0.0665824,0.0490205,0
2024-11-29 18:14:39.978,-0.789931,4.76172,12.5378,0.23342,-0.0665824,0.0490205,0
2024-11-29 18:14:39.984,-0.813859,4.69472,12.4732,0.257854,-0.0494786,0.0801737,0
2024-11-29 18:14:39.984,-0.813859,4.69472,12.4732,0.257854,-0.0494786,0.0801737,0
2024-11-29 18:14:39.985,-0.809073,4.68275,12.4205,0.268849,-0.0390942,0.0978883,0
2024-11-29 18:14:39.989,-0.816252,4.69233,12.3679,0.278012,-0.0293207,0.114381,0
2024-11-29 18:14:39.991,-0.835394,4.68754,12.2961,0.285342,-0.0177146,0.132707,0
2024-11-29 18:14:39.993,-0.859622,4.68515,12.2028,0.293283,-0.00305424,0.154697,0
2024-11-29 18:14:39.995,-0.881157,4.68515,12.0999,0.296948,0.00977356,0.174244,0
2024-11-29 18:14:39.998,-0.895514,4.67797,11.9871,0.29817,0.0226013,0.19318,0
2024-11-29 18:14:40.000,-0.871586,4.7019,11.8795,0.293894,0.0329858,0.212117,0
2024-11-29 18:14:40.002,-0.821037,4.69711,11.7766,0.285953,0.0409268,0.232275,0
2024-11-29 18:14:40.004,-0.754038,4.67797,11.6569,0.278623,0.0458135,0.249378,0
2024-11-29 18:14:40.007,-0.682254,4.65165,11.5469,0.265184,0.0458135,0.26465,0
2024-11-29 18:14:40.009,-0.596112,4.60858,11.4604,0.249913,0.0421485,0.276867,0
2024-11-29 18:14:40.011,-0.481256,4.54876,11.3695,0.230977,0.0354291,0.28664,0
2024-11-29 18:14:40.015,-0.352044,4.47458,11.257,0.184552,0.00977356,0.295803,0
2024-11-29 18:14:40.016,-0.208176,4.41954,11.135,0.184552,0.00977356,0.295803,0
2024-11-29 18:14:40.018,-0.0598206,4.36212,11.0106,0.154621,-0.0122169,0.296414,0
2024-11-29 18:14:40.021,0.0933201,4.28794,10.8978,0.121635,-0.0427593,0.290916,0
2024-11-29 18:14:40.023,0.236889,4.22572,10.8404,0.0807082,-0.0781884,0.281753,0
2024-11-29 18:14:40.025,0.375972,4.18235,10.8188,0.0410031,-0.124002,0.268315,0
2024-11-29 18:14:40.028,0.524327,4.14646,10.7901,-0.00358873,-0.175313,0.253043,0
2024-11-29 18:14:40.031,0.660718,4.12732,10.7806,-0.0555107,-0.229679,0.232886,0
2024-11-29 18:14:40.033,0.794716,4.11536,10.8165,-0.104989,-0.287098,0.212728,0
2024-11-29 18:14:40.036,0.926621,4.10339,10.8882,-0.155079,-0.350015,0.18585,0
2024-11-29 18:14:40.037,1.07976,4.08186,11.0034,-0.210055,-0.412933,0.160195,0
2024-11-29 18:14:40.041,1.2329,4.04836,11.1565,-0.260145,-0.474628,0.128431,0
2024-11-29 18:14:40.042,1.39322,4.00289,11.3791,-0.312677,-0.536935,0.094834,0
2024-11-29 18:14:40.045,1.57059,3.91914,11.6521,-0.399418,-0.645055,0.0233649,0
2024-11-29 18:14:40.048,1.72852,3.82822,11.9369,-0.399418,-0.645055,0.0233649,0
2024-11-29 18:14:40.050,1.88405,3.72772,12.2315,-0.437901,-0.69209,-0.0175619,0
2024-11-29 18:14:40.052,2.02792,3.61496,12.5474,-0.469665,-0.731795,-0.0584886,0
2024-11-29 18:14:40.054,2.14277,3.48574,12.8946,-0.492877,-0.763559,-0.101248,0
2024-11-29 18:14:40.057,2.26002,3.3326,13.2227,-0.513646,-0.787993,-0.144618,0
2024-11-29 18:14:40.059,2.36291,3.17946,13.5194,-0.52342,-0.80021,-0.186767,0
2024-11-29 18:14:40.062,2.41316,3.03799,13.7806,-0.531361,-0.809983,-0.277172,0
2024-11-29 18:14:40.064,2.42991,2.8992,14.0007,-0.524641,-0.806318,-0.322375,0
2024-11-29 18:14:40.066,2.40838,2.76042,14.2472,-0.524641,-0.806318,-0.322375,0
2024-11-29 18:14:40.069,2.32941,2.61685,14.5155,-0.50937,-0.798988,-0.363912,0
2024-11-29 18:14:40.070,2.20499,2.47059,14.7547,-0.491045,-0.786771,-0.403617,0
2024-11-29 18:14:40.074,2.05663,2.31506,14.9632,-0.465389,-0.768446,-0.440879,0
2024-11-29 18:14:40.076,1.87208,2.14995,15.1235,-0.395142,-0.710415,-0.495855,0
2024-11-29 18:14:40.078,1.68305,1.98485,15.2384,-0.395142,-0.710415,-0.495855,0
2024-11-29 18:14:40.080,1.52513,1.81944,15.3413,-0.35055,-0.668267,-0.51357,0
2024-11-29 18:14:40.083,1.38844,1.62802,15.4397,-0.301071,-0.62001,-0.526398,0
2024-11-29 18:14:40.084,1.25444,1.41745,15.4971,-0.246095,-0.565645,-0.536782,0
2024-11-29 18:14:40.088,1.11326,1.20658,15.4995,-0.187454,-0.505171,-0.543501,0
2024-11-29 18:14:40.090,0.933799,1.01994,15.4612,-0.0628409,-0.358567,-0.538004,1
2024-11-29 18:14:40.092,0.720539,0.859622,15.3748,-0.0628409,-0.358567,-0.538004,0
2024-11-29 18:14:40.095,0.498006,0.71336,15.2575,0.0745997,-0.19486,-0.505018,0
2024-11-29 18:14:40.097,0.263211,0.581755,15.0805,0.0745997,-0.19486,-0.505018,0
2024-11-29 18:14:40.098,0.0334995,0.452543,14.8528,0.142404,-0.110563,-0.478141,0
2024-11-29 18:14:40.102,-0.191426,0.328116,14.6064,0.271293,0.0580305,-0.40545,0
2024-11-29 18:14:40.104,-0.411865,0.22014,14.2998,0.271293,0.0580305,-0.40545,0
2024-11-29 18:14:40.106,-0.622433,0.138784,13.9552,0.328101,0.138051,-0.359636,0
2024-11-29 18:14:40.109,-0.828216,0.0717847,13.6104,0.382467,0.215018,-0.308936,0
2024-11-29 18:14:40.111,-1.01755,0.026321,13.261,0.431945,0.283433,-0.252127,0
2024-11-29 18:14:40.113,-1.17547,0.00239282,12.8874,0.474705,0.348794,-0.194097,0
2024-11-29 18:14:40.116,-1.29751,-0.0119641,12.5258,0.510745,0.405603,-0.134234,0
2024-11-29 18:14:40.118,-1.37169,-0.00239282,12.1669,0.571219,0.503949,-0.0114534,0
2024-11-29 18:14:40.121,-1.40548,-0.00478565,11.8005,0.571219,0.503949,-0.0114534,0
2024-11-29 18:14:40.123,-1.40788,0.00717847,11.458,0.610313,0.573586,0.104608,0
2024-11-29 18:14:40.125,-1.39561,0.040678,11.147,0.610313,0.573586,0.104608,0
2024-11-29 18:14:40.128,-1.34536,0.0574277,10.8308,0.623141,0.598019,0.160806,0
2024-11-29 18:14:40.130,-1.24965,0.0861416,10.5221,0.634136,0.626729,0.260984,0
2024-11-29 18:14:40.132,-1.15633,0.143569,10.2467,0.634136,0.626729,0.260984,0
2024-11-29 18:14:40.134,-1.02233,0.212961,10.0122,0.633525,0.628562,0.304355,0
2024-11-29 18:14:40.136,-0.871586,0.277567,9.79412,0.635357,0.626118,0.343449,0
2024-11-29 18:14:40.139,-0.722932,0.337687,9.58355,0.630471,0.620621,0.377045,0
2024-11-29 18:14:40.141,-0.557827,0.3999,9.39452,0.623141,0.609015,0.405755,0
2024-11-29 18:14:40.143,-0.380758,0.486042,9.22672,0.616421,0.593133,0.4308,0
2024-11-29 18:14:40.146,-0.184247,0.572184,9.1023,0.605426,0.570531,0.451569,0
2024-11-29 18:14:40.149,0.00957129,0.651147,8.99462,0.583435,0.523496,0.476003,0
2024-11-29 18:14:40.151,0.189033,0.732503,8.89891,0.583435,0.523496,0.476003,0
2024-11-29 18:14:40.154,0.375972,0.813859,8.83909,0.565721,0.464855,0.484555,0
2024-11-29 18:14:40.156,0.569791,0.902692,8.80559,0.565721,0.464855,0.484555,0
2024-11-29 18:14:40.157,0.734896,0.979263,8.78405,0.560834,0.433091,0.480889,0
2024-11-29 18:14:40.160,0.893121,1.03908,8.74816,0.554115,0.399494,0.47417,0
2024-11-29 18:14:40.162,1.05823,1.09651,8.7027,0.548617,0.36773,0.466229,0
2024-11-29 18:14:40.164,1.20897,1.13719,8.69761,0.546785,0.335355,0.450958,0
2024-11-29 18:14:40.167,1.3669,1.16112,8.7027,0.54373,0.301148,0.435687,0
2024-11-29 18:14:40.169,1.52752,1.19462,8.68086,0.545563,0.268162,0.417972,0
2024-11-29 18:14:40.171,1.68544,1.21854,8.65693,0.548006,0.232733,0.395371,0
2024-11-29 18:14:40.175,1.8338,1.24247,8.64497,0.552282,0.200358,0.370326,0
2024-11-29 18:14:40.176,1.95105,1.2664,8.61386,0.556558,0.169816,0.343449,0
2024-11-29 18:14:40.180,2.05424,1.28076,8.55883,0.567553,0.119115,0.284197,0
2024-11-29 18:14:40.182,2.14756,1.30947,8.49661,0.567553,0.119115,0.284197,0
2024-11-29 18:14:40.184,2.22174,1.34058,8.41765,0.577938,0.0775776,0.218836,0
2024-11-29 18:14:40.187,2.27199,1.3669,8.32194,0.577938,0.0775776,0.218836,0
2024-11-29 18:14:40.189,2.29831,1.39561,8.21187,0.582214,0.0623064,0.186461,0
2024-11-29 18:14:40.190,2.30788,1.42223,8.08953,0.585268,0.0482569,0.151643,0
2024-11-29 18:14:40.194,2.28873,1.44138,7.95314,0.588322,0.0207688,0.0850605,0
2024-11-29 18:14:40.195,2.24806,1.45334,7.79761,0.588322,0.0207688,0.0850605,0
2024-11-29 18:14:40.198,2.19063,1.48445,7.65165,0.585879,0.00916271,0.0539073,0
2024-11-29 18:14:40.204,1.9681,1.54427,7.22782,0.565721,-0.0329858,-0.0352764,0
2024-11-29 18:14:40.204,1.9681,1.54427,7.22782,0.565721,-0.0329858,-0.0352764,0
2024-11-29 18:14:40.204,1.9681,1.54427,7.22782,0.565721,-0.0329858,-0.0352764,0
2024-11-29 18:14:40.208,1.89362,1.5682,7.07707,0.540676,-0.0623064,-0.0908635,0
2024-11-29 18:14:40.209,1.81466,1.5658,6.91885,0.540676,-0.0623064,-0.0908635,0
2024-11-29 18:14:40.213,1.74048,1.54427,6.78724,0.522351,-0.0763559,-0.116519,0
2024-11-29 18:14:40.214,1.64716,1.54905,6.65324,0.505858,-0.0922379,-0.140342,0
2024-11-29 18:14:40.216,1.55623,1.54905,6.5336,0.486311,-0.109342,-0.162944,0
2024-11-29 18:14:40.220,1.47727,1.53948,6.4352,0.44233,-0.145382,-0.207535,0
2024-11-29 18:14:40.222,1.39801,1.5323,6.33948,0.44233,-0.145382,-0.207535,0
2024-11-29 18:14:40.223,1.34058,1.52034,6.27009,0.418507,-0.164318,-0.227082,0
2024-11-29 18:14:40.227,1.27597,1.51316,6.20549,0.39224,-0.181422,-0.246019,0
2024-11-29 18:14:40.229,1.21137,1.51077,6.15045,0.365974,-0.199747,-0.262512,0
2024-11-29 18:14:40.231,1.14197,1.50838,6.10738,0.339097,-0.212575,-0.279615,0
2024-11-29 18:14:40.233,1.07976,1.50838,6.0667,0.31283,-0.226624,-0.294886,0
2024-11-29 18:14:40.235,1.03669,1.50598,6.04277,0.28412,-0.239452,-0.307714,0
2024-11-29 18:14:40.238,1.0008,1.51316,6.02602,0.2548,-0.246782,-0.321764,0
2024-11-29 18:14:40.241,0.974477,1.52034,6.01645,0.202267,-0.258999,-0.345587,0
2024-11-29 18:14:40.243,0.940978,1.52034,6.01645,0.202267,-0.258999,-0.345587,0
2024-11-29 18:14:40.246,0.919442,1.54427,6.02124,0.172335,-0.264497,-0.357804,0
2024-11-29 18:14:40.248,0.912264,1.55862,6.02842,0.143015,-0.264497,-0.36941,0
2024-11-29 18:14:40.249,0.897907,1.57059,6.03799,0.113083,-0.263886,-0.381627,0
2024-11-29 18:14:40.252,0.873978,1.61127,6.0691,0.085595,-0.264497,-0.395676,0
2024-11-29 18:14:40.254,0.859622,1.64477,6.11695,0.0562743,-0.261443,-0.408504,0
2024-11-29 18:14:40.257,0.857229,1.67109,6.1672,0.0300079,-0.254723,-0.42011,0
2024-11-29 18:14:40.259,0.833001,1.70219,6.22224,0.00862822,-0.250447,-0.432938,0
2024-11-29 18:14:40.262,0.797109,1.72852,6.28924,-0.0164165,-0.242506,-0.444544,0
2024-11-29 18:14:40.264,0.782752,1.76201,6.36341,-0.0377962,-0.233955,-0.455539,0
2024-11-29 18:14:40.266,0.76361,1.78594,6.4352,-0.0597867,-0.22357,-0.465313,0
2024-11-29 18:14:40.269,0.737288,1.81226,6.48814,-0.0775012,-0.213797,-0.475697,0
2024-11-29 18:14:40.271,0.699003,1.8338,6.54317,-0.090329,-0.205856,-0.483638,0
2024-11-29 18:14:40.274,0.670289,1.83859,6.62453,-0.103768,-0.194249,-0.489747,0
2024-11-29 18:14:40.276,0.639183,1.85294,6.71067,-0.126369,-0.17287,-0.503185,0
2024-11-29 18:14:40.278,0.584148,1.86491,6.78485,-0.126369,-0.17287,-0.503185,0
2024-11-29 18:14:40.280,0.545863,1.86969,6.83749,-0.133088,-0.15882,-0.506851,0
2024-11-29 18:14:40.282,0.514756,1.87687,6.87578,-0.138586,-0.145992,-0.509905,0
2024-11-29 18:14:40.285,0.464507,1.89123,6.9332,-0.142251,-0.131943,-0.512959,0
2024-11-29 18:14:40.288,0.421436,1.91516,6.97867,-0.143473,-0.11545,-0.512348,0
2024-11-29 18:14:40.290,0.380758,1.9343,6.99781,-0.140419,-0.0818535,-0.508072,0
2024-11-29 18:14:40.293,0.32333,1.95583,7.02204,-0.139197,-0.0653607,-0.502575,0
2024-11-29 18:14:40.295,0.260818,1.97049,7.04597,-0.139197,-0.0653607,-0.502575,0
2024-11-29 18:14:40.297,0.205783,1.99202,7.06032,-0.136143,-0.0500895,-0.494634,0
2024-11-29 18:14:40.300,0.179462,2.01356,7.05314,-0.130034,-0.0342074,-0.486082,0
2024-11-29 18:14:40.301,0.165105,2.02552,7.03879,-0.125758,-0.0189363,-0.475697,0
2024-11-29 18:14:40.304,0.141177,2.04227,7.01486,-0.120261,-0.00549763,-0.464702,0
2024-11-29 18:14:40.308,0.100499,2.07099,6.93799,-0.109876,0.0226013,-0.44149,0
2024-11-29 18:14:40.308,0.100499,2.07099,6.93799,-0.109876,0.0226013,-0.44149,0
2024-11-29 18:14:40.310,0.0789631,2.05663,6.90928,-0.108044,0.0354291,-0.429273,0
2024-11-29 18:14:40.314,0.0622134,2.06381,6.85424,-0.101935,0.0604739,-0.400563,0
2024-11-29 18:14:40.316,0.0430708,2.08774,6.78246,-0.101324,0.0708583,-0.386514,0
2024-11-29 18:14:40.319,0.0239282,2.09492,6.71067,-0.101324,0.0708583,-0.386514,0
2024-11-29 18:14:40.321,0.0143569,2.12124,6.63171,-0.104379,0.0885729,-0.35475,0
2024-11-29 18:14:40.323,0.0119641,2.14277,6.54078,-0.104379,0.0885729,-0.35475,0
2024-11-29 18:14:40.326,0.0119641,2.15952,6.46421,-0.109876,0.0965139,-0.339478,0
2024-11-29 18:14:40.327,0.0454636,2.17866,6.38973,-0.117817,0.0977356,-0.325429,0
2024-11-29 18:14:40.329,0.0933201,2.19541,6.30598,-0.124536,0.0977356,-0.311379,0
2024-11-29 18:14:40.333,0.117248,2.21934,6.23899,-0.138586,0.0946813,-0.300995,0
2024-11-29 18:14:40.334,0.155533,2.25045,6.17199,-0.152025,0.0873512,-0.293054,0
2024-11-29 18:14:40.336,0.20339,2.28156,6.10499,-0.168517,0.0775776,-0.285113,0
2024-11-29 18:14:40.339,0.260818,2.33659,6.0667,-0.18501,0.0653607,-0.276561,0
2024-11-29 18:14:40.342,0.318545,2.39641,6.04277,-0.20639,0.0513112,-0.272285,0
2024-11-29 18:14:40.343,0.361615,2.45145,6.03081,-0.22777,0.0366508,-0.272285,0
2024-11-29 18:14:40.347,0.390329,2.51605,6.03799,-0.24976,0.0244339,-0.272285,0
2024-11-29 18:14:40.348,0.41665,2.56899,6.06192,-0.274805,0.00794101,-0.27595,0
2024-11-29 18:14:40.351,0.428614,2.63121,6.10738,-0.296795,-0.00549763,-0.279004,0
2024-11-29 18:14:40.354,0.438186,2.69342,6.15763,-0.320008,-0.0171037,-0.284502,0
2024-11-29 18:14:40.356,0.454935,2.75324,6.23181,-0.35788,-0.043981,-0.296108,0
2024-11-29 18:14:40.358,0.471685,2.79153,6.32513,-0.35788,-0.043981,-0.296108,0
2024-11-29 18:14:40.361,0.478864,2.81785,6.4017,-0.396974,-0.0671932,-0.308325,0
2024-11-29 18:14:40.363,0.462114,2.83699,6.47617,-0.396974,-0.0671932,-0.308325,0
2024-11-29 18:14:40.365,0.447757,2.84895,6.55035,-0.414689,-0.0806318,-0.315044,0
2024-11-29 18:14:40.367,0.428614,2.85374,6.62214,-0.42996,-0.0897945,-0.322986,0
2024-11-29 18:14:40.370,0.404686,2.84178,6.69392,-0.446453,-0.0989573,-0.328483,0
2024-11-29 18:14:40.372,0.380758,2.83699,6.76092,-0.463557,-0.104455,-0.334592,0
2024-11-29 18:14:40.374,0.359223,2.83938,6.82313,-0.476385,-0.113618,-0.338868,0
2024-11-29 18:14:40.376,0.332901,2.82024,6.87578,-0.49471,-0.120337,-0.342533,0
2024-11-29 18:14:40.380,0.285045,2.80828,6.96431,-0.50937,-0.126445,-0.343754,0
2024-11-29 18:14:40.382,0.212961,2.82263,7.08186,-0.524031,-0.133776,-0.3407,0
2024-11-29 18:14:40.383,0.141177,2.83938,7.21586,-0.535026,-0.142938,-0.338257,0
2024-11-29 18:14:40.387,0.0885344,2.87288,7.37857,-0.544799,-0.149658,-0.332148,0
2024-11-29 18:14:40.391,0.0358923,2.91356,7.67797,-0.560071,-0.166761,-0.315655,0
2024-11-29 18:14:40.392,-0.00717847,2.91356,7.67797,-0.560071,-0.166761,-0.315655,0
2024-11-29 18:14:40.394,-0.0311067,2.9351,7.81675,-0.563125,-0.171648,-0.293665,0
2024-11-29 18:14:40.396,-0.0550349,2.94945,7.95554,-0.556405,-0.169816,-0.28267,0
2024-11-29 18:14:40.398,-0.0981057,2.94467,8.10389,-0.556405,-0.169816,-0.28267,0
2024-11-29 18:14:40.400,-0.129212,2.92792,8.25972,-0.549686,-0.16554,-0.269842,0
2024-11-29 18:14:40.403,-0.162712,2.91835,8.41047,-0.541745,-0.164929,-0.258236,0
2024-11-29 18:14:40.405,-0.198604,2.9351,8.56361,-0.531972,-0.160653,-0.244186,0
2024-11-29 18:14:40.408,-0.224925,2.95185,8.7027,-0.499597,-0.153934,-0.216087,0
2024-11-29 18:14:40.409,-0.241675,2.96381,8.8008,-0.499597,-0.153934,-0.216087,0
2024-11-29 18:14:40.413,-0.263211,2.98056,8.87737,-0.462946,-0.144771,-0.184934,0
2024-11-29 18:14:40.415,-0.301795,3.00449,8.95873,-0.443399,-0.138051,-0.16783,0
2024-11-29 18:14:40.417,-0.349651,3.04277,9.01616,-0.443399,-0.138051,-0.16783,0
2024-11-29 18:14:40.419,-0.392722,3.07627,9.06641,-0.425073,-0.13011,-0.150116,0
2024-11-29 18:14:40.422,-0.4334,3.09811,9.12144,-0.382925,-0.113007,-0.114076,0
2024-11-29 18:14:40.425,-0.459721,3.13639,9.16212,-0.382925,-0.113007,-0.114076,0
2024-11-29 18:14:40.427,-0.483649,3.17228,9.20519,-0.341387,-0.0861295,-0.0743707,0
2024-11-29 18:14:40.429,-0.493221,3.19861,9.24347,-0.32184,-0.0775776,-0.0548235,0
2024-11-29 18:14:40.432,-0.498006,3.22493,9.25783,-0.301682,-0.0629173,-0.0364981,0
2024-11-29 18:14:40.433,-0.495613,3.25603,9.27488,-0.301682,-0.0629173,-0.0364981,0
2024-11-29 18:14:40.436,-0.474078,3.28235,9.27966,-0.282746,-0.0525329,-0.0175619,0
2024-11-29 18:14:40.440,-0.454935,3.31825,9.27249,-0.246706,-0.0317641,0.0178673,0
2024-11-29 18:14:40.441,-0.454935,3.31825,9.27249,-0.246706,-0.0317641,0.0178673,0
2024-11-29 18:14:40.443,-0.438186,3.34218,9.24347,-0.230213,-0.0183254,0.0343602,0
2024-11-29 18:14:40.446,-0.421436,3.37807,9.2339,-0.201503,0.00427593,0.0636808,0
2024-11-29 18:14:40.447,-0.395115,3.40917,9.2004,-0.201503,0.00427593,0.0636808,0
2024-11-29 18:14:40.450,-0.378365,3.44028,9.15973,-0.188675,0.015882,0.0752869,0
2024-11-29 18:14:40.452,-0.364008,3.48096,9.11665,-0.17768,0.0274881,0.0881147,0
2024-11-29 18:14:40.455,-0.342473,3.52164,9.07598,-0.169739,0.03604,0.0978883,0
2024-11-29 18:14:40.457,-0.328116,3.54796,9.02812,-0.159355,0.0470352,0.107051,0
2024-11-29 18:14:40.459,-0.311366,3.58146,8.98983,-0.154468,0.0568088,0.115603,0
2024-11-29 18:14:40.461,-0.299402,3.61256,8.96351,-0.153857,0.0653607,0.122933,0
2024-11-29 18:14:40.465,-0.287438,3.64606,8.92044,-0.152025,0.0696366,0.133317,0
2024-11-29 18:14:40.467,-0.265603,3.67747,8.89173,-0.14836,0.080021,0.145534,0
2024-11-29 18:14:40.468,-0.256032,3.71815,8.89651,-0.14836,0.080021,0.145534,0
2024-11-29 18:14:40.471,-0.263211,3.75883,8.89651,-0.153857,0.0861295,0.151032,0
2024-11-29 18:14:40.474,-0.248854,3.78754,8.89412,-0.156911,0.0916271,0.159584,0
2024-11-29 18:14:40.475,-0.229711,3.83061,8.92523,-0.159966,0.0989573,0.165081,0
2024-11-29 18:14:40.479,-0.222533,3.87607,8.96591,-0.162409,0.109953,0.175466,0
2024-11-29 18:14:40.481,-0.208176,3.92154,8.99941,-0.164852,0.11545,0.17852,0
2024-11-29 18:14:40.483,-0.189033,3.97179,9.03051,-0.164852,0.11545,0.17852,0
2024-11-29 18:14:40.486,-0.16989,4.01246,9.08555,-0.165463,0.121559,0.180964,0
2024-11-29 18:14:40.488,-0.150748,4.04357,9.15015,-0.165463,0.13011,0.182185,0
2024-11-29 18:14:40.490,-0.150748,4.08903,9.20758,-0.165463,0.13011,0.182185,0
2024-11-29 18:14:40.492,-0.174676,4.1345,9.26292,-0.167296,0.134386,0.186461,0
2024-11-29 18:14:40.494,-0.208176,4.17757,9.3012,-0.165463,0.141106,0.187683,0
2024-11-29 18:14:40.498,-0.241675,4.22572,9.36341,-0.157522,0.152101,0.19318,0
2024-11-29 18:14:40.500,-0.270389,4.26401,9.40888,-0.157522,0.152101,0.19318,0
2024-11-29 18:14:40.501,-0.292223,4.29512,9.44716,-0.154468,0.15882,0.198067,0
2024-11-29 18:14:40.505,-0.304188,4.32383,9.51416,-0.14897,0.162485,0.201732,0
2024-11-29 18:14:40.507,-0.318545,4.35972,9.5668,-0.145916,0.161875,0.207841,0
2024-11-29 18:14:40.509,-0.330509,4.38126,9.62663,-0.141029,0.164929,0.212117,0
2024-11-29 18:14:40.511,-0.325723,4.4004,9.70319,-0.136753,0.164318,0.217003,0
2024-11-29 18:14:40.513,-0.313759,4.43151,9.77259,-0.131867,0.163096,0.22189,0
2024-11-29 18:14:40.516,-0.30658,4.45304,9.83271,-0.125147,0.161264,0.224334,0
2024-11-29 18:14:40.518,-0.304188,4.47697,9.89253,-0.120871,0.163096,0.226777,0
2024-11-29 18:14:40.521,-0.294616,4.49372,9.94517,-0.115374,0.164318,0.229831,0
2024-11-29 18:14:40.522,-0.285045,4.52483,9.99303,-0.109265,0.16615,0.233496,0
2024-11-29 18:14:40.525,-0.275175,4.56072,10.06,-0.101324,0.171648,0.237772,0
2024-11-29 18:14:40.531,-0.244068,4.61815,10.1845,-0.0848314,0.180811,0.242659,0
2024-11-29 18:14:40.531,-0.244068,4.61815,10.1845,-0.0848314,0.180811,0.242659,0
2024-11-29 18:14:40.533,-0.232104,4.63729,10.2347,-0.0848314,0.180811,0.242659,0
2024-11-29 18:14:40.535,-0.18664,4.66122,10.273,-0.0787229,0.180811,0.245102,0
2024-11-29 18:14:40.537,-0.150748,4.67558,10.3161,-0.0738362,0.182032,0.245102,0
2024-11-29 18:14:40.540,-0.114855,4.68993,10.3663,-0.0658951,0.180811,0.244492,0
2024-11-29 18:14:40.542,-0.0861416,4.6995,10.4192,-0.0640626,0.1802,0.244492,0
